accel_x (m/s^2),accel_y (m/s^2),accel_z (m/s^2)
-1.011260124210932925e-03,-2.004535948760409643e-03,-9.807587672632344322e+00
-3.002841059788353105e-03,-2.293229981416439796e-03,-9.790880482879169122e+00
-1.120489228731053923e-02,-2.551268645631534979e-03,-9.798101480852594136e+00
-4.712716670211088490e-03,4.117364850283174692e-03,-9.801233314169436994e+00
2.498988839837113646e-03,-8.876179442071996731e-03,-9.795992997075847697e+00
2.345321225446686531e-03,-5.171860141585589736e-04,-9.786642229039609120e+00
4.949700607278536071e-03,-9.561125593044605573e-04,-9.792970498691126124e+00
-2.875033688029935471e-03,-1.202621383025211880e-03,-9.798304039340420601e+00
-7.003891806765319417e-04,-1.386946292633219231e-02,-9.805921999252635857e+00
-2.475408927102461330e-03,9.229406348305207487e-04,-9.802573400520603997e+00
4.729091545991379215e-03,-4.042379265702627025e-03,-9.786421682239883069e+00
-4.477556979071975994e-03,-6.133904361323916886e-03,-9.791290190549501560e+00
-8.529289049473748677e-03,2.447614588874679788e-03,-9.797241864925501531e+00
-4.891390388410676686e-03,3.138616488031728308e-04,-9.796927517553115194e+00
2.714413711549886008e-03,1.108414502211131115e-02,-9.792941215751408635e+00
5.398641909055252978e-03,2.920498197374567749e-03,-9.791074808061534185e+00
-4.573387126992184068e-03,5.185141907426671012e-03,-9.786540430730561013e+00
5.248929371960140908e-03,2.886951073743815755e-03,-9.792563757934344082e+00
-1.187910201081790115e-02,5.014524243789410555e-04,-9.798093116616925613e+00
-1.670528333198831707e-03,1.196827639272096764e-03,-9.796720798836455302e+00
-6.807379456975079859e-03,5.098759634640154248e-03,-9.793871381529273279e+00
8.137471627029773877e-03,8.531439647897683456e-03,-9.798606227302530058e+00
3.044433575989545591e-03,-2.879867803720988564e-03,-9.791418066138303899e+00
-3.944669013315964257e-03,-1.522610184107229766e-04,-9.794291602714922718e+00
-9.000582976760464204e-03,-1.587179169500710970e-03,-9.802395937966240425e+00
-2.578455956305023347e-03,2.452968324881588894e-03,-9.796314819562669030e+00
-5.934412718600531531e-03,2.682222220099240648e-03,-9.794508253961515365e+00
8.550830295542811293e-03,5.062563422214691120e-03,-9.796485953673084168e+00
-1.702284179841321611e-03,-6.946189756921448445e-04,-9.796331771350970996e+00
-4.474573706450610602e-03,-6.254030149780757074e-03,-9.799650895325694222e+00
-5.011126149108496679e-03,-3.147946839497994115e-03,-9.788847691023587316e+00
-7.976644903845505133e-03,1.665674747584098376e-03,-9.795788451880598657e+00
-1.882261834881711598e-03,-4.309657881486661166e-03,-9.796792899782090558e+00
-7.109940027192354628e-03,3.937754281989212270e-03,-9.797529884948326995e+00
-7.745061906062264412e-03,-2.319534691774004665e-03,-9.792037689956313073e+00
-8.660572446366129884e-03,3.386320770992644683e-03,-9.786850311669519797e+00
-9.453159836527521773e-03,-8.971607740026773734e-03,-9.801561184946265826e+00
2.930172392238000745e-03,6.584686007592661927e-03,-9.789575886712047037e+00
-1.323671367473512996e-03,5.368541744337942088e-03,-9.799125549286177517e+00
-1.648604846902486419e-03,-2.424528114025383332e-03,-9.798407444039451519e+00
-3.658031276092363338e-03,-7.908205079032041077e-03,-9.806077252231650832e+00
-4.315477658113900578e-04,7.300976235395375755e-03,-9.795029335101196111e+00
4.560069095204104077e-03,7.526021081417308151e-04,-9.799492810412836263e+00
1.916349011324352614e-03,6.159509243838701478e-03,-9.800568862105773604e+00
9.832631972764886100e-04,-1.949873975380250930e-03,-9.795947442505225311e+00
9.297852069243821294e-03,-6.489385435881670459e-03,-9.789117957552683436e+00
-6.300869389571437350e-03,9.712600919611601982e-04,-9.781295975513694785e+00
-5.365929482503595423e-03,-9.719230482321053466e-03,-9.800848867072771142e+00
-4.804720291445490959e-04,-4.212309960018305321e-03,-9.803413829871328034e+00
8.091864304881514827e-03,3.551685372995380847e-04,-9.793549127805182053e+00
1.573433656249164552e-03,-9.139614056044496199e-03,-9.792273376641967175e+00
-1.074158479092639749e-02,7.752936941308218206e-03,-9.792701831666949630e+00
-3.645123663111502019e-03,3.510061912565527568e-03,-9.785087867638631920e+00
3.867106809901702923e-03,-1.816408867000981900e-03,-9.786848037666596056e+00
7.872588512947500256e-03,-9.823105788948225867e-05,-9.799900113377196575e+00
-4.143885844518778623e-03,-2.713906929817881414e-03,-9.791608816337351584e+00
2.383800140900480674e-03,1.389638167066799788e-02,-9.791864071402132552e+00
-1.371872937922652197e-03,-2.663705332385681631e-03,-9.787759005822616487e+00
-1.182014506308678471e-03,-1.488024765705927600e-03,-9.798505401252073810e+00
5.605658154401557854e-04,-2.330418031362621167e-03,-9.791234439253726052e+00
2.304202207494365860e-03,6.730905146352992793e-03,-9.792819561336992606e+00
5.619826337271136008e-03,-1.030149390694013074e-02,-9.798818756242694050e+00
-3.406884821251622477e-03,2.153512243016649560e-03,-9.792714051714359158e+00
2.685115316653304777e-03,-1.258899350601871492e-03,-9.786861591126196913e+00
-7.380998354781393442e-04,-3.290631706955598687e-03,-9.793918854958148401e+00
2.381485239941267184e-04,1.460938084847737510e-03,-9.795251849322223592e+00
-8.511188527135962853e-05,1.641413564665316119e-04,-9.793218366015606691e+00
7.180816839792372383e-03,-5.586244940640264223e-03,-9.787085834634863701e+00
7.348136218573156006e-03,-1.813673801755605287e-03,-9.799120456922397082e+00
3.851604800635882037e-03,2.876773554506439901e-03,-9.797432661338213222e+00
2.500035251066230584e-03,-4.369010644245220100e-03,-9.793473814269141542e+00
-2.904568567295983793e-03,-4.284382396523712076e-03,-9.791186731826194034e+00
4.298929651653000277e-04,7.234230657170244785e-03,-9.794987253290619478e+00
-6.728317655641086713e-04,4.590844524184823326e-03,-9.795447258401575041e+00
-4.971556822629880253e-03,1.183872950812055267e-03,-9.793947993494501958e+00
3.870001479332362947e-03,-7.119453861440619988e-04,-9.796620836111729957e+00
4.527569267149058468e-03,-6.399659923755137737e-03,-9.794128365573110173e+00
1.168755668734762065e-03,4.566863324930955405e-03,-9.798252199262318385e+00
4.216340544896815014e-03,4.540080065093004928e-03,-9.785203723629592787e+00
1.884270377545976425e-03,1.184299835719308195e-03,-9.799268676600256356e+00
-5.857239290092084230e-03,1.438438153683246250e-03,-9.792353061871343911e+00
5.567484163580808552e-04,-1.393682079122684006e-02,-9.794213214164189552e+00
2.893793400383262975e-03,-3.378408153941796655e-03,-9.801974014065562457e+00
1.272137110676528063e-03,1.163625385695510632e-03,-9.789669963196052649e+00
-3.720214221292440001e-03,4.294538985362274935e-03,-9.792575379142785863e+00
1.339934278077233639e-03,-3.374520315388230066e-03,-9.789909784749212918e+00
-7.522632671253659878e-03,4.463823697323284628e-03,-9.791403475733527983e+00
3.170204883484776907e-03,-6.094339615036998377e-04,-9.791913518998345722e+00
4.660330271722786162e-04,-7.046442980213802904e-04,-9.790910053790922163e+00
1.103472269975039810e-03,-7.352187327656060749e-03,-9.791661880960091935e+00
1.911894846907087348e-03,3.977339263861331096e-03,-9.792142928905587240e+00
2.356484818689759918e-03,1.923397993787422664e-03,-9.791393515975169493e+00
-3.097327461828110456e-03,1.117541352833029827e-02,-9.790157822167030233e+00
-1.422413019841622678e-03,-4.959186447130987593e-03,-9.792619239717986090e+00
3.705967262290794668e-03,9.907318243068384024e-04,-9.796458978551719099e+00
4.373234625218714623e-03,-5.366955175213869965e-03,-9.794797455960084775e+00
3.873461782512083694e-03,7.149004262987724082e-03,-9.792282308379247624e+00
6.292377301001309854e-03,-2.407871300841858166e-03,-9.799278195080743714e+00
-2.760769227169017370e-04,-2.499939669745987903e-03,-9.792826217279586132e+00
-2.048817776406505579e-03,5.206892725490804008e-03,-9.798517005011227354e+00
-2.128864307990778991e-03,3.583926919983430014e-03,-9.801272704495143984e+00
4.118716481537419878e-03,-1.955975701275215403e-03,-9.794308377417696221e+00
-4.474767870443285313e-03,2.981273384768085444e-03,-9.789357646985552108e+00
8.768821446102444475e-03,1.622584949835000198e-03,-9.798212211931119242e+00
-1.572299142844493488e-03,1.189623097715449994e-03,-9.795772504492752830e+00
1.882590633964509753e-03,7.556741206935392932e-03,-9.792231407447188118e+00
-7.273071119220896052e-03,3.389545799568371466e-03,-9.791169617658363578e+00
8.299216652985526646e-03,-5.125346266105293425e-03,-9.792806088932792363e+00
-1.657491710700714077e-03,-9.346751533585317842e-05,-9.789404308361822515e+00
-2.794108505031595979e-03,-6.133391677322038056e-03,-9.790867777019741425e+00
-1.024653746788560396e-03,-2.731980179668484256e-03,-9.799403225921002658e+00
-1.206297241553925571e-02,-1.389997126700711358e-03,-9.797876741348980900e+00
-1.656860191543603478e-03,-8.811868875977568738e-03,-9.800782914297883508e+00
-1.716782603675574186e-03,6.684221881116649000e-03,-9.794896390686940180e+00
-4.031700670649717442e-04,-1.203867409318658569e-03,-9.800519392206396674e+00
5.582127936388476402e-03,-9.815166208910288542e-03,-9.793036056802471023e+00
5.490510671067725355e-03,-8.913637433259867515e-03,-9.795545450745255067e+00
-5.156718869946540391e-04,-4.445336045018851746e-03,-9.791957220950971319e+00
4.383533027391297784e-03,1.015399429608081563e-02,-9.793041591229183496e+00
9.964760999055400498e-03,-3.343854398311752341e-03,-9.794009545167119413e+00
5.614231250392365605e-03,-1.399534952428631426e-03,-9.794982944724349494e+00
-7.409413155912127069e-03,4.574404571546823554e-03,-9.808223331145264012e+00
1.196966889470275691e-03,-1.987016201024081365e-04,-9.786530469854934466e+00
2.046957882507530885e-03,7.250593257362582364e-05,-9.800163044272776958e+00
5.366377162271726738e-03,8.258317726177428347e-03,-9.797642164784495122e+00
1.940123555145382766e-03,2.487941196135264738e-03,-9.795121484162610415e+00
-8.445274426362953200e-04,-2.682266136343698908e-03,-9.789650109426325741e+00
-2.772853414661463622e-03,-4.578273652192755639e-05,-9.788445497087703728e+00
4.942081191710394735e-05,4.580829642217774424e-03,-9.789940515082260930e+00
2.583067814466002542e-03,8.584964932103048875e-04,-9.798032365161214230e+00
5.177163284803194300e-03,7.782416575610745383e-04,-9.798705245822249665e+00
-6.007034579592331232e-03,2.118131444157257508e-03,-9.795255206361552780e+00
2.693513818742074815e-03,1.906637142180297789e-03,-9.789509190856749754e+00
-1.561277977315176724e-03,7.776406205665006540e-04,-9.792661651023458091e+00
1.570128326742667056e-03,-4.299517389978324035e-03,-9.786072157411862094e+00
-2.086478918386164543e-03,5.665798279017404335e-03,-9.790467012147908932e+00
9.846923501739802964e-03,6.518120687063560202e-03,-9.799531047625398728e+00
1.732687820775580863e-03,-3.780449961537760400e-03,-9.800734918274823571e+00
-9.204093414066839840e-03,-1.039853051104865436e-03,-9.797529946203066942e+00
3.579647365298179330e-03,5.163964710487797989e-03,-9.798927421433877072e+00
8.773824095495355926e-03,6.723972267307386230e-03,-9.781464611422441280e+00
-4.986126921651450050e-03,5.069399263575101455e-03,-9.800950560792820454e+00
-1.181075614094927216e-03,3.887586839602950265e-03,-9.798499650588073706e+00
1.682055331538152192e-03,2.548229552527554037e-03,-9.802099198745992226e+00
5.010345052218643722e-03,6.380183509738093089e-03,-9.797975694336326313e+00
-7.194184524316501843e-03,-2.984942452571990494e-04,-9.795065964054199270e+00
-1.859656435442306240e-03,-7.284539126987948400e-03,-9.794600156732398588e+00
3.161540630532643902e-03,2.152884706252972211e-03,-9.796059051821522701e+00
-1.197978175860211309e-03,-1.058116971947829429e-02,-9.786479521696913153e+00
-8.433100461393029917e-04,5.100536626237286986e-03,-9.795216027014937765e+00
-3.197380176543276192e-04,-7.865742843302556478e-03,-9.790978455203887876e+00
4.096778329839105819e-04,-5.562246198005420944e-03,-9.793223228268153946e+00
2.194247480162806949e-03,-4.048042754080592200e-03,-9.796826256988598658e+00
-1.197959120071815080e-03,-2.634046748364634281e-03,-9.802870278573955432e+00
-4.922556200432214035e-03,-1.708158697130732250e-03,-9.798591147963621850e+00
-2.876605415507446444e-04,3.950927728599943310e-03,-9.788827360307100989e+00
-8.730045495104490037e-04,-1.918481368876778391e-04,-9.787262338495674285e+00
6.079553749413521384e-03,-8.575395396624989775e-04,-9.789196265893119531e+00
-7.102482349466258688e-04,-1.264895631086554798e-03,-9.795711931757525193e+00
-8.599057475193398747e-03,-5.363988580693486441e-03,-9.793434115557090536e+00
-2.443031061368775101e-03,-5.197036029222995915e-03,-9.801894492931481295e+00
1.135961703422078400e-03,2.314808859812814926e-03,-9.798886929625709286e+00
2.829537247713937928e-03,6.958388043761492940e-03,-9.793607189993489115e+00
2.885159514967804498e-03,-7.864735406144554922e-03,-9.796038545637875572e+00
-6.371050148414844280e-03,-8.943008177892943986e-03,-9.797761486312486667e+00
9.122724509845000660e-04,-3.421834730290972126e-03,-9.795837754408502462e+00
3.435741731131165128e-03,4.495665047327336203e-04,-9.794386140005327590e+00
7.980863383568842853e-03,-4.487052538291054146e-03,-9.788671273679558027e+00
-7.748299773035073612e-03,1.636835776394055062e-03,-9.788423367487720128e+00
-3.841929093289464265e-03,-7.288445794928839934e-03,-9.795285187804395832e+00
-5.013889494228355830e-03,3.881852672915550410e-03,-9.793191950699021930e+00
4.475023156902280946e-03,-4.367322279924901705e-03,-9.793605846932901926e+00
-9.985086922045156160e-03,-1.984228492097623708e-03,-9.785378119688358467e+00
3.272668864207065997e-03,5.528219648718782700e-03,-9.800238538944213929e+00
2.532176418480705082e-03,1.667784768056045910e-03,-9.798757397393584867e+00
3.778497023248996931e-03,-3.659058227778853693e-03,-9.784666778049855296e+00
-9.602591614031091762e-04,1.420060905497094739e-03,-9.789328659975579328e+00
1.051570503908908459e-02,-7.035254417097022185e-03,-9.792239285951788830e+00
4.994868763666338030e-03,-2.030191793903702094e-03,-9.790562957768997876e+00
-6.761856430125602353e-04,2.421441353894920618e-03,-9.801461362519724219e+00
5.727736258530230842e-03,-2.714989839404100165e-03,-9.795650359294352683e+00
2.718625367126458262e-03,7.518238663092741960e-04,-9.797127874850284357e+00
-9.101330127990241159e-03,1.339168158041463552e-03,-9.792135741673542171e+00
8.926291518299969609e-04,-2.613367355115087630e-03,-9.799287011522666901e+00
2.716322347720944233e-03,9.672336516009197738e-04,-9.793365583217852333e+00
-3.794173134359340571e-03,-6.041389598662446313e-03,-9.788724658673064738e+00
5.068067129916222846e-04,5.873891136457833756e-03,-9.796001233219636006e+00
2.029202682504242274e-03,4.343746186093420079e-03,-9.787458342790248622e+00
-2.258236495128906028e-03,-8.979666325806006820e-04,-9.788968289558651392e+00
-2.115948659692202215e-03,2.796091981712971446e-03,-9.795543004047935653e+00
-2.862874132041090796e-03,5.335343073454543866e-03,-9.797753275492631531e+00
2.270170684446208217e-03,1.226858610867768420e-03,-9.787888738396469890e+00
-2.416569106869193538e-03,2.727232771088815635e-03,-9.797727715788868252e+00
-4.390794884580859030e-03,-4.803748557711839972e-04,-9.792489006351848602e+00
2.806353688573451008e-03,-5.751188850850733579e-03,-9.800130764955159890e+00
4.061071500987777604e-03,-2.055906002500113103e-03,-9.804004290774610553e+00
7.260213588636330387e-03,-3.424619302121743696e-03,-9.792592046626143798e+00
3.210410819862410947e-03,2.767040497073346150e-03,-9.786264102584091518e+00
3.714371343990639091e-03,-4.998722702463392724e-03,-9.796621161815943779e+00
-9.828569539899991087e-05,-4.121273716221836997e-03,-9.794130449168022778e+00
5.679195241436491189e-03,-2.653026376860372938e-03,-9.794245204183637199e+00
-2.927163135997958542e-03,-3.884604570674321002e-03,-9.799794484471984646e+00
-2.827267238410160165e-03,-1.552008058344411183e-04,-9.792692849071119809e+00
-6.740513787774161068e-03,3.017192313758680633e-03,-9.788640859178427078e+00
-2.505123248282797692e-04,-3.404947672161294688e-03,-9.793801590246561162e+00
-7.014770625081213386e-04,-4.993644817076297454e-03,-9.786013237664297648e+00
-2.704204693475813649e-04,6.876392534752123059e-03,-9.787481552824358388e+00
-3.558562300824089520e-03,-1.159727233442333326e-02,-9.788417799553123189e+00
9.704183823136300346e-03,4.739730381873522545e-03,-9.788038868379899782e+00
5.249276873665246037e-04,1.019924838591516501e-03,-9.803175252676982865e+00
-2.714887311561711356e-03,1.649941331352520113e-03,-9.802181314184482019e+00
-3.836773284300572153e-03,-8.224270885568301520e-03,-9.792346557488567527e+00
-2.013076580828776930e-03,1.696927832639753570e-03,-9.805852273800717001e+00
1.337583951654540805e-03,3.890504490852937213e-03,-9.801438302563154181e+00
8.638347255279755447e-04,-3.472892867336284817e-03,-9.792226035169962373e+00
8.647303626113399255e-03,3.651231332095646563e-03,-9.792265530040106469e+00
9.063731746006920085e-04,3.433698607847532076e-03,-9.803199929844790717e+00
2.045767321894158882e-03,-1.293977377897669295e-03,-9.793615379317362368e+00
1.552606810348998619e-03,2.512472050076466814e-03,-9.806148865314860075e+00
6.550419227282962449e-03,-1.621027014258942045e-03,-9.801980728153266043e+00
9.653580631601215920e-04,-2.427346914371798260e-03,-9.790743819507627066e+00
3.820874422402253945e-03,-2.861011380440374192e-03,-9.799858390493371374e+00
8.179209593397556571e-03,-4.072843167276262756e-03,-9.797145584684065156e+00
4.207445767199076382e-04,7.773227488470621548e-04,-9.796939614780061589e+00
2.394441972099979696e-03,1.110201243471286257e-02,-9.796205859343384503e+00
-3.282707856561383614e-03,-3.574940643571523306e-03,-9.797401886857578290e+00
-1.499746141290903662e-04,6.120057653056450858e-03,-9.788755780894652148e+00
-5.516497151793000459e-03,9.473987125057055977e-04,-9.800547700257256523e+00
-1.171691962933791090e-02,2.674381140557145764e-03,-9.794971180726907534e+00
-3.444754606841140231e-03,-1.178115895365094761e-03,-9.795039994671544292e+00
1.892610553291721766e-03,-7.246621769896907476e-04,-9.798926039687358980e+00
2.416115894527846690e-03,2.631440434838611814e-03,-9.786129119556289169e+00
-5.472665469307008007e-03,2.003021963112255974e-03,-9.790111282084136946e+00
-2.357329491809449090e-03,-1.603977751550341628e-03,-9.803682246805957234e+00
-3.608724631334229473e-03,3.262176453940350031e-03,-9.797245494153361989e+00
-6.805519669309484897e-03,-6.446771709963437444e-03,-9.799429257352310074e+00
8.844728753636707345e-04,-2.662712937782921001e-03,-9.797660991491788707e+00
6.667935707842738251e-03,-6.022172885750404561e-03,-9.801381365743949914e+00
9.874685870965960177e-03,4.536413487180140404e-03,-9.795918218996510163e+00
4.447196891997260391e-03,2.366593130223101568e-03,-9.794180340623123371e+00
1.139653927698354441e-02,1.696478363168249775e-03,-9.793115085760812022e+00
4.937526169730878248e-04,8.919392469343773860e-03,-9.795315205666712544e+00
-2.459050026461521293e-03,-4.276292563675568033e-04,-9.804006188640240538e+00
-3.215417801170082461e-03,-8.193428676926420295e-03,-9.792427107239833006e+00
7.937632636600321090e-03,-7.280137104289010480e-04,-9.784133769224986565e+00
-8.072039367497743645e-03,-1.766616579968822466e-03,-9.794498186165919051e+00
-4.441702296168111366e-03,6.563186865748415165e-03,-9.795061465433549941e+00
3.125902195331526842e-03,-2.828596084502762054e-03,-9.794262538005613195e+00
-5.165008135335298102e-03,-4.599284155214619836e-04,-9.802075391671573712e+00
-1.288103753234252219e-02,4.438559951338917273e-03,-9.793196138078293700e+00
3.290773336018727041e-03,-2.895673748103308118e-03,-9.806743638835175858e+00
-4.178730293416400843e-03,-1.759060394424020145e-03,-9.801111750483471496e+00
-1.348059949930942043e-03,8.414289130051867205e-04,-9.793596400443348671e+00
-8.370433022289973509e-04,2.250480968101144837e-03,-9.792165334483696526e+00
1.132831196920652686e-03,1.289702661039075467e-03,-9.797405627524765848e+00
-5.204434857744260137e-03,-1.424135203440914490e-03,-9.793487564474608220e+00
1.200669655792387623e-02,-4.736175002011441815e-03,-9.792828980737997568e+00
4.304384786186000490e-03,-1.697434665123933413e-03,-9.794055867803812987e+00
-5.602691364340288763e-03,1.714341385444552663e-03,-9.800248966189814226e+00
-3.448394092009499003e-03,-1.406933661868591152e-03,-9.791670336881152181e+00
-3.821371555454298498e-03,-7.807039074181967853e-03,-9.785787290211919398e+00
-4.581979249109109989e-03,-1.654260337224496002e-03,-9.788483255052955911e+00
-5.264103721921788853e-03,-1.094416459846869749e-03,-9.790279142211458563e+00
-9.570721853353317179e-04,5.903336831666414902e-03,-9.788164473652788189e+00
-6.571991199048383796e-03,-6.633030487560210783e-03,-9.785839466371006878e+00
6.381852653365278037e-04,-1.068766959938811413e-02,-9.791644050587304804e+00
1.593493912624450700e-03,-3.285479483993866256e-03,-9.796333886020462955e+00
-2.510620677039054460e-03,5.633688530505681462e-03,-9.793872192842634661e+00
1.734531892492487939e-04,-3.287678031295768102e-03,-9.797236589406832508e+00
4.181216385980466091e-03,6.133221728864614829e-03,-9.791393770885420622e+00
-3.248733758320988211e-03,-2.432586578391778085e-03,-9.807968770737863551e+00
-2.207765231151865865e-03,-2.758010171567602548e-03,-9.798602173434286300e+00
-1.861608582931420638e-03,1.170047802419334378e-02,-9.798654547079783228e+00
-8.053951887103359686e-04,2.976708705908785203e-03,-9.796668680636642534e+00
-3.000783807087025173e-03,-4.825358323002393139e-03,-9.787134350799986393e+00
1.089231840144023675e-02,2.138677827533379944e-04,-9.796568992697565648e+00
-5.212487884236750683e-04,1.597795541116276080e-03,-9.798024407029624072e+00
-1.116794472195948521e-03,-1.114463365569739670e-02,-9.794821498037626029e+00
-4.147406707841766287e-03,1.320631382509939149e-03,-9.797527194519839000e+00
4.596138398041889860e-03,-6.599587477701744989e-03,-9.793719770348991105e+00
-7.739922080701892859e-03,-3.191979829435293622e-03,-9.798725201385918737e+00
-2.442138100165519490e-03,-2.163119109020859854e-03,-9.794201595331003318e+00
-5.134803152904493170e-03,1.596113123538444581e-03,-9.801689435788674132e+00
5.542319325642857709e-03,6.043225278307340874e-03,-9.795324414586776385e+00
8.952975490825113361e-03,-9.040492962506668784e-03,-9.795695753963812535e+00
5.993261328748428381e-03,9.219771580457784138e-03,-9.799464114619150124e+00
4.707098328318401817e-03,-2.975677170641308732e-03,-9.800752437209137469e+00
-1.094852630517972143e-03,-3.875323670270353071e-03,-9.792265677190160389e+00
-5.691113256798126198e-04,2.914207350500400660e-03,-9.798799716774917457e+00
6.142050948408622063e-03,2.863758288297667525e-03,-9.794204706947439831e+00
9.988772967761554850e-03,-5.805770675504974901e-03,-9.807286746974909875e+00
-4.656663251018417979e-03,2.271107675834390695e-03,-9.798779569475730256e+00
-1.169756351807446984e-03,-6.629685922640736993e-03,-9.792354251066656801e+00
-4.806085253506502336e-04,2.929475974566942299e-03,-9.794194970719045656e+00
-2.114752563589929624e-03,1.012291732488178678e-02,-9.788535776386245502e+00
-3.615752303536282335e-03,5.248744383274047548e-03,-9.789290651342140492e+00
3.547305871089167541e-03,3.726583992163668389e-03,-9.793132614846387085e+00
8.891106531445934534e-04,-8.171479941774308434e-03,-9.795792057548453613e+00
1.143741802955518900e-03,9.486264348938547655e-03,-9.801739434217045854e+00
4.422215644678939420e-04,1.263218903353822932e-03,-9.802518947665531002e+00
-5.535907442007080743e-04,5.587897307788188689e-03,-9.792445955779074396e+00
-3.273427723608911266e-03,-6.282321938378618298e-03,-9.795248752509442269e+00
-2.574269794817890013e-03,3.590026062885616487e-03,-9.797772426947105373e+00
-6.445262142650522901e-04,-4.194278671939897889e-03,-9.789074590952685284e+00
-7.055942280069030410e-03,-4.444127686033706379e-03,-9.792643866362123362e+00
-1.051601141905151270e-02,-8.549005922716941194e-03,-9.789825571800635728e+00
7.922448165962688374e-03,-1.255803468028247232e-03,-9.793879100142834915e+00
-1.419948580418474958e-02,-1.955286764490008714e-03,-9.792377672645976361e+00
-6.716520785925687506e-03,-3.174498530348561498e-03,-9.800665304688326529e+00
-2.311117717771737131e-03,-7.610842648588442977e-03,-9.797366577334216231e+00
4.214772076259066212e-03,2.386731395317852680e-03,-9.796859732721591385e+00
-2.962576768240797551e-03,-9.296123233600257297e-04,-9.797029540580282969e+00
9.749856260103684788e-04,8.526865454430133939e-03,-9.796828176001662669e+00
-3.015797864104569331e-03,-6.962699811775879301e-03,-9.793949791996617193e+00
5.944452272490487015e-03,-1.516761157869837579e-03,-9.792615661361480761e+00
1.919691117280643592e-04,-1.971689187374852173e-03,-9.787132497994143421e+00
1.947173119809957650e-04,-1.201851653920914254e-02,-9.785710844385453910e+00
-3.502989658903099372e-03,-6.806198519569690505e-03,-9.788250880921955499e+00
-5.425137489386520039e-03,1.498033447488577403e-03,-9.792208278750640815e+00
1.290521105168609918e-03,4.889225036601832323e-03,-9.789219778635297686e+00
-5.407123906873288061e-03,-1.484325181509092142e-03,-9.795845937624747535e+00
-7.670857042577160223e-03,-4.433147290093497964e-03,-9.797357987426824621e+00
5.360195780389457806e-03,5.109834981878865270e-03,-9.798382113831072715e+00
2.086846151285274512e-03,1.512366846870398041e-03,-9.794739958771387478e+00
-1.659952415003112299e-03,-1.812109746032804659e-03,-9.797898477550658569e+00
-9.017324109335924168e-03,-1.715693808194141074e-03,-9.791827627587192495e+00
-8.608445637637249584e-03,-1.663699475045605537e-03,-9.799161153882852915e+00
1.272915366773213867e-02,9.160801653070748188e-03,-9.790153509770064488e+00
1.089222378947110430e-02,5.454007993436024715e-03,-9.788891597767253927e+00
-4.971535505735852735e-04,-8.536229670833478389e-03,-9.801049821467339385e+00
-5.030999231950714252e-03,-6.299493650988892759e-03,-9.790529379049399239e+00
-6.615316846725434116e-03,-9.044669422747947732e-03,-9.793634385164999401e+00
-4.841907043417691646e-03,2.122556784588124773e-03,-9.792874649536551956e+00
-4.335764618971679231e-03,-4.758904148064112510e-04,-9.786941362453889681e+00
1.061621728076388030e-03,-4.660976720852892836e-03,-9.793801147276356645e+00
-5.530155710584709269e-03,2.466172430718844254e-03,-9.794254730656252406e+00
-9.100353192461136049e-04,-4.087480586796768400e-03,-9.796358047145085735e+00
-1.134603430603597397e-02,-6.498423583213791630e-04,-9.796362341654933914e+00
-5.661379276055551702e-04,1.209560101545544014e-04,-9.790774665101345420e+00
1.425200662945192613e-03,5.606199069736351320e-03,-9.791121587413877947e+00
1.319493724279281873e-03,4.642309109844699805e-04,-9.797836596194770209e+00
-4.606669291924511342e-03,-3.661852025074480415e-03,-9.802148526764620229e+00
-1.352099760280653807e-03,2.363516141339440987e-03,-9.796334166674855126e+00
-3.371052764245095843e-03,-2.888410777112132566e-03,-9.785665401668326879e+00
6.008808224362009905e-03,3.420829380732851293e-03,-9.790649837493898389e+00
-3.786107503554620238e-03,-3.760474986988148090e-03,-9.798906433964152285e+00
5.776240098650652945e-03,1.971574521492025424e-04,-9.804836165017228211e+00
-4.612832628755730510e-03,-2.836392485499998790e-03,-9.795932400273018814e+00
-5.295649846500796037e-03,-2.694479291749093258e-03,-9.801101918834612903e+00
-3.726325977657510453e-03,4.266684692656224666e-03,-9.801392496029038170e+00
3.121789648897993312e-03,2.711819131800454526e-03,-9.790144977901901413e+00
-1.905969084952672697e-03,1.090061890802651763e-02,-9.802130528810138799e+00
-6.721297321558464093e-03,-3.565156462514497068e-03,-9.797696605964564043e+00
-2.437540406936486437e-03,-3.210091988917631364e-03,-9.791468443612634687e+00
-3.228378123024812623e-03,-4.375762083269725371e-03,-9.794356727944412810e+00
-9.302160612034161488e-03,-2.664815423765566973e-03,-9.791077457705100073e+00
-8.163885392848662520e-03,-2.547601925169265882e-03,-9.805270554539013972e+00
-5.961513946466572532e-03,7.853359513996320193e-03,-9.792902564006062960e+00
-5.418722704216527922e-03,3.154541379345475027e-03,-9.784930592615019407e+00
3.871758576016199899e-03,-9.229497889498661928e-03,-9.794060590635654151e+00
6.558445460569784988e-03,-5.221260049723759102e-03,-9.793370556427117180e+00
4.332228913211444432e-03,-2.450827032895658893e-03,-9.789562206245577158e+00
7.666891569836619411e-04,-7.206049722418763660e-03,-9.791109986948958621e+00
4.352204010417875038e-03,-1.625486006995615663e-03,-9.801943466864106114e+00
-2.167533535375267689e-03,1.874158234222159797e-03,-9.794008720934980872e+00
3.829022556172781942e-03,-5.529671821387248908e-03,-9.792706510612580573e+00
-1.087946832714196434e-02,-3.347468506368813778e-03,-9.801129852647617824e+00
-1.232751819278208889e-03,-6.786731002727145606e-03,-9.793251116855033800e+00
3.583999512085245774e-03,-1.059805309689758682e-03,-9.789688111770002976e+00
3.293276950747223500e-03,7.022277569955777399e-03,-9.795584837071928064e+00
-3.961234042627034824e-03,-2.756783843450637955e-03,-9.794385927830063565e+00
4.189925048768660711e-03,5.071465704226771343e-03,-9.791782117441428568e+00
-4.655407575935795877e-03,7.026913710525848960e-04,-9.792747734919291958e+00
3.639588917082966016e-03,1.724846206296603863e-03,-9.790713802660038212e+00
-1.971235975125435423e-04,3.053382594514957114e-03,-9.791756913153006892e+00
-8.594525135502035368e-03,1.059746344420538569e-02,-9.787430610877921211e+00
-7.276473341337586116e-03,5.613159274239998275e-03,-9.794151543417997985e+00
-7.220316971074674725e-03,1.286149587995276703e-03,-9.792312784883385746e+00
2.956537270377680932e-05,8.540524347051543612e-04,-9.810434045583104279e+00
5.448752124554834611e-03,2.179945256636493713e-03,-9.791859863278702392e+00
-6.549754976498461598e-03,1.356233872992257568e-03,-9.802061229176375790e+00
-2.599910272105774092e-03,-1.051964923058646209e-02,-9.793300654064244881e+00
-6.420426146788809317e-03,7.456547833694995853e-03,-9.790131601827669172e+00
-5.776348010524689353e-03,1.901699757116973250e-04,-9.798559182669961842e+00
-8.204619430871668223e-04,1.117018639724355437e-02,-9.799192119173092408e+00
-1.699469401093644085e-03,5.929771178042381533e-03,-9.789041338605111164e+00
-1.120497787790042214e-03,-2.775759945340918865e-03,-9.792122103407983502e+00
-5.126481983276332324e-03,-3.149885629010429951e-03,-9.789859679535050319e+00
5.791016364767146568e-03,-4.658900548672461304e-03,-9.799023272489769454e+00
2.994697198850961029e-03,3.031257554311214751e-04,-9.793600652554074415e+00
4.068376347640989305e-04,8.280522254177434104e-04,-9.796875804312362490e+00
6.288136580117955135e-03,4.079340689155222565e-04,-9.795795331252207916e+00
-3.786303052662972376e-04,7.537513729209930312e-03,-9.802354795754711247e+00
-1.266454925155771453e-02,-5.288780193320048208e-03,-9.791815469038294140e+00
-3.423109871796724789e-03,-3.908633625918811472e-03,-9.790288286836286602e+00
-5.629073520208830068e-04,-6.894385065778214743e-04,-9.799288189984361352e+00
-2.412633843691933989e-03,-3.320744639225715802e-03,-9.800898344156733444e+00
-1.093133142152617082e-04,8.703688382463483850e-03,-9.791324802733333499e+00
-3.639996935631226085e-03,7.809535654307310200e-04,-9.788477779934886769e+00
-2.289591822398069458e-03,3.758427354774294526e-03,-9.793191869237114489e+00
4.143262594315661775e-03,-1.827550050794988059e-03,-9.794857985557145597e+00
-7.979317812768357485e-03,3.550005909274469261e-03,-9.793000135388844285e+00
-4.192305589365491643e-03,-1.420508207706168684e-03,-9.800599418412353714e+00
2.535946804604884315e-03,2.058697666434877727e-03,-9.796628762281759606e+00
7.126251735316324436e-03,-1.356279752656482269e-02,-9.804923183442710410e+00
-5.035874942964076260e-04,-2.081043111728405476e-03,-9.796572293071225346e+00
5.934756514603783647e-04,-6.040807190617905609e-03,-9.800082863099083497e+00
-6.410672849237083505e-03,-1.492375697284249866e-03,-9.796586165670678525e+00
-2.635071974300390481e-03,2.941749361159926631e-03,-9.802626292958640519e+00
-1.727551599218462685e-04,2.918722449292955601e-03,-9.794117168942673146e+00
-3.831999759491287985e-07,-1.292138997884892306e-03,-9.788611745333225755e+00
4.964959409396983887e-03,4.783770145297234003e-03,-9.796368708684290993e+00
5.629444507693380983e-04,-2.396488944229858802e-03,-9.802952963798977848e+00
-6.720286259040730500e-03,-3.949225315025524548e-03,-9.792607148098403158e+00
2.811960315203459321e-03,7.313485306001087961e-03,-9.794860998521635054e+00
9.584688738120930216e-05,3.173350329632021894e-03,-9.800842110518770411e+00
-2.209436472233203773e-04,-4.687943625728168903e-03,-9.797165568633570132e+00
9.453402532278561143e-03,-9.277804316211602377e-05,-9.803340092789950333e+00
-4.478155269377078959e-03,1.064027938748572958e-03,-9.800306934445526252e+00
-6.494713336445738505e-03,3.959447419258412329e-03,-9.796823832775210406e+00
5.193786217139446763e-03,1.182849473251342117e-03,-9.795839643584061562e+00
-5.223715976885822646e-05,7.771495211962438712e-03,-9.794549175121531448e+00
3.113311148387185034e-03,3.707941075856052530e-03,-9.796878293123146619e+00
-5.248700076465857324e-03,-4.324331223753251872e-03,-9.788702782600848806e+00
-2.053193419020405645e-03,6.563540470125620377e-03,-9.790141372470086978e+00
-4.891173482840038313e-03,-6.026088806453899945e-03,-9.800371291744088609e+00
-4.197270486559556008e-03,-1.220924514285634446e-03,-9.802819416905313332e+00
-8.316404659969540286e-03,2.498069027433244809e-03,-9.802257106962965594e+00
-7.436241877819247531e-03,-5.306131049999578651e-03,-9.795644357136938041e+00
9.294865645017972439e-03,1.148581651542300922e-02,-9.786106445001129472e+00
-4.709718211015711739e-03,-5.543283809583176083e-03,-9.795036864007167665e+00
2.889648361762650521e-03,7.623316116724015643e-03,-9.792618071248289979e+00
-6.075840417344083658e-03,-9.820651108954261965e-03,-9.796989150489341824e+00
-1.431423502188969906e-03,5.494481828468496558e-04,-9.798285685528336231e+00
-7.546917026794592795e-03,7.125285356286998467e-03,-9.792932255665256491e+00
1.175491929647533296e-03,-4.000939428616671900e-03,-9.796691742659316304e+00
1.391196228314051781e-04,-1.750470307828945775e-03,-9.794707041210667597e+00
-5.530691298083722542e-03,5.046073404376047282e-03,-9.797230967549172220e+00
2.464895143636468972e-03,-1.539530696084103444e-03,-9.800629735121393793e+00
9.526003871539047430e-03,3.427774134681821003e-03,-9.797174306596403426e+00
7.116909042023878557e-03,-2.332938999762674669e-03,-9.798113797628868582e+00
-1.448540904930131540e-04,-1.752146871813247244e-03,-9.792120742150322243e+00
-7.604447458314292623e-04,2.161320142943375447e-03,-9.782625108667520664e+00
6.724442313585692749e-03,-3.241659870113947940e-03,-9.797170549984565824e+00
4.185090555953376035e-03,-1.312700412995621187e-03,-9.793984889142198114e+00
-1.240785361480846666e-03,1.821403383093574743e-03,-9.799089609885315966e+00
1.000396467930903151e-02,-1.801554619073177403e-03,-9.797309395839000956e+00
-4.787548034082421758e-03,1.676978294503215193e-03,-9.795258838874474350e+00
2.809627570217409186e-03,-1.101039406004989231e-03,-9.797824219074986019e+00
2.681250208088705594e-03,4.812922015587761844e-03,-9.794824236516550542e+00
-5.134354598357222972e-03,-6.825202091306172740e-04,-9.793166465049708336e+00
-4.477404943320251705e-03,4.343547532851007795e-03,-9.793423698061198834e+00
-4.155064235670046825e-03,-8.218725758791118122e-03,-9.806524059359206902e+00
-2.543335966102310431e-03,8.477901382113356074e-03,-9.797818949606091010e+00
-5.369536460374477529e-03,1.141990615014365452e-03,-9.792213848513299013e+00
1.982576961326079721e-03,5.165224827175741475e-03,-9.798795208081079622e+00
7.460116959435988265e-03,5.358880709815562341e-04,-9.799870876530999197e+00
-2.449397454681587379e-03,1.482823569014520481e-03,-9.794007692305180868e+00
1.881383973580073475e-03,1.769245901588840984e-04,-9.797218156093357777e+00
-1.361481835936221609e-03,7.942579439146503842e-03,-9.795037399677093859e+00
4.043086009495809943e-03,-8.964319010657402151e-03,-9.797449748832223193e+00
1.926675019582911336e-03,-6.386941062219256803e-03,-9.798368000115525334e+00
-2.447721125641419502e-03,3.346774827974742620e-05,-9.794926585686077658e+00
-2.059966335439305119e-03,-6.599712963952931132e-03,-9.794553431879721828e+00
7.475127990223152420e-03,2.259186148277326882e-03,-9.788295806171857905e+00
9.085872358613309233e-03,7.598075571924855706e-03,-9.799576297214780851e+00
-5.658288541823561744e-03,-3.111856578879554401e-05,-9.801484323207180438e+00
2.395865794382486067e-03,6.878002102572201848e-03,-9.788186365527762334e+00
3.719067812248864902e-03,2.508935095430035300e-03,-9.788519047408327012e+00
2.408782837262074712e-03,1.176417008361982895e-03,-9.802633631599489306e+00
6.107517497896231863e-03,9.327205527215770044e-04,-9.795574392706029698e+00
-4.242138549373465455e-03,-5.904085094757190698e-03,-9.791588846148902903e+00
-6.709198849738189953e-03,3.632957102346832858e-03,-9.798882114798857401e+00
-7.202544322142870499e-03,-3.091406579770157332e-03,-9.797339605755052361e+00
-2.273368987082552959e-04,5.443784686279698991e-03,-9.803591899070525528e+00
3.745249818852808884e-03,-2.026993716567161447e-03,-9.791751763186548274e+00
4.551941894831130521e-03,-7.131243478311989625e-03,-9.793645177997170492e+00
4.794647952565472653e-03,-1.288972783982225917e-03,-9.797280950580040226e+00
4.263513072200551118e-03,3.302761710005363074e-03,-9.788399758625402569e+00
1.067755010579750363e-02,-1.449723767809438409e-03,-9.792720002410229441e+00
6.141984029627824138e-03,3.026935497205983112e-03,-9.797499822760308064e+00
-6.413595321823978290e-03,-8.433309338158961822e-05,-9.808084727756035903e+00
6.524143806056050346e-05,1.664515646732569337e-04,-9.793611469083684185e+00
-2.721816199770848033e-03,2.389383784670653130e-04,-9.799277519348001064e+00
6.341132809998331621e-04,3.338950725436658478e-03,-9.801421406255203195e+00
4.509447514427826487e-03,-2.540035268225981739e-03,-9.788682587183039630e+00
2.599443342194378628e-03,-3.473334982442940599e-03,-9.786833921479274778e+00
6.437528389235657247e-03,-5.641349582141233802e-04,-9.793399284242710223e+00
3.733782518636000625e-03,8.393095003422126887e-03,-9.785204236124084076e+00
4.651827923613933687e-04,7.429677275075131926e-03,-9.790275929159964363e+00
9.383265832182692556e-03,2.986324254546497865e-03,-9.800744148343499162e+00
5.261879449424538072e-03,2.857630556707400665e-04,-9.793994177281769353e+00
-2.426201854336075200e-03,-2.508819690124444377e-03,-9.800063265420964953e+00
-2.254676321946032930e-03,7.099684619684239889e-03,-9.787583202527800452e+00
-1.700641346165018006e-03,-2.981959798483074103e-03,-9.786768185510714702e+00
8.630743725539893538e-03,5.553790500468575725e-03,-9.792736798641259455e+00
6.411594608617983545e-04,-8.839284222676926797e-04,-9.789178987934899823e+00
1.494759275654836432e-03,4.740790012456605831e-05,-9.799207527485160441e+00
-2.183756612741214777e-03,5.523308298384045113e-03,-9.792214865981824445e+00
6.661837432820891854e-04,1.423846750835661753e-03,-9.793366027192250911e+00
3.857488920299232717e-03,-1.864347959189303862e-03,-9.793456110012490612e+00
-6.001631686830072527e-04,-4.586425327721403602e-04,-9.796331229130764484e+00
4.977140800399053149e-03,3.757778401475807706e-03,-9.802032134540084485e+00
9.059431194126513209e-03,-1.204241505368771562e-03,-9.799508007526627651e+00
6.530470844625547479e-03,5.065841338304564014e-04,-9.793410849985507483e+00
6.614053598444566417e-03,9.144306615262798657e-03,-9.790152190618197636e+00
4.718875400153582991e-03,-1.848622968503752092e-03,-9.784394537395911584e+00
-6.993733374878132250e-03,-6.337538060385615544e-04,-9.790824169186041814e+00
-7.678276809486604204e-04,7.905615058725465793e-05,-9.790806842040685964e+00
1.484442647410155096e-03,-4.503454175531866437e-03,-9.790872641285201183e+00
-5.209667938106561473e-03,6.476965723779548774e-03,-9.795978506705916189e+00
-6.463589455331815708e-04,1.035887152172077809e-02,-9.796319616616477433e+00
5.079969798324637884e-04,1.166989726939948908e-02,-9.796812210811630450e+00
-2.193722724544286873e-04,-2.631372116665350435e-03,-9.799458080518164138e+00
-3.179830398876369569e-04,4.130609145962579193e-03,-9.791676445180710786e+00
-5.613761609831026921e-03,2.827871674033322676e-03,-9.800412981294130077e+00
-2.241853255802059471e-03,1.400862824130847534e-02,-9.792327912079766605e+00
-5.351210880434332552e-03,-4.573560583195943746e-03,-9.787107407799910064e+00
-6.997834704456059977e-03,-5.591904715168381085e-03,-9.787959502686549129e+00
-3.878648997182199826e-04,-5.304537409253821598e-03,-9.786507334681260772e+00
-8.312445535000479585e-04,2.939067664870772222e-03,-9.796034836063334694e+00
-1.045319347599574060e-02,-1.054822498190514414e-02,-9.794349730423641986e+00
3.545596636135639262e-05,-4.077011223532880750e-03,-9.794708523588029792e+00
-7.584972939619527739e-03,-6.545312436465893988e-03,-9.798666913980010662e+00
2.674411875918046664e-03,-3.659332221200834508e-03,-9.792567924460909623e+00
6.641009782265189926e-03,4.330930437206776187e-03,-9.795507447893168518e+00
-5.209881340084349111e-03,-3.261002349343182678e-03,-9.790262003789747425e+00
-2.181139955669843516e-03,-3.226692492461549159e-03,-9.796051166616679851e+00
-5.190147459281061956e-03,8.712605622997452890e-04,-9.802448921510233504e+00
-3.292861682873788557e-03,9.086108730410805481e-03,-9.797526225867558836e+00
-6.088960464824241846e-04,7.662077368244530999e-04,-9.800607928392627954e+00
1.441277292242204480e-04,-3.082566447192471113e-03,-9.781134814985890102e+00
1.905365331974779490e-03,-2.353455744009276020e-03,-9.796839872904243407e+00
-8.732242430704650199e-03,-1.103320772667336228e-03,-9.797816905364395978e+00
2.485246893716325321e-03,-1.675553644252662918e-03,-9.789639171946113549e+00
-2.473854661647127435e-03,2.891177466799316632e-03,-9.792157895336405460e+00
5.517322621607473028e-04,-6.446750784374635779e-03,-9.792658370984479888e+00
5.995480664457298724e-04,3.596596062405566473e-03,-9.799006461162667492e+00
-6.006708023554157248e-03,-3.217993179418968119e-03,-9.795125970034092688e+00
-9.957510772216210393e-03,5.485199193203432050e-03,-9.790180366258688593e+00
-4.727173332432077837e-03,1.992914968842522845e-03,-9.793312750099214981e+00
5.734332148578163632e-03,3.016351854560242029e-03,-9.796484940951728504e+00
4.083908561999066017e-03,6.290540288408081443e-05,-9.792291707219231256e+00
4.209840667697650057e-03,-5.987423644105543605e-03,-9.790285028097725828e+00
7.061416021489821254e-04,8.255073956772473673e-03,-9.786627038141311630e+00
-1.758191829057263473e-03,-1.423112234489155772e-03,-9.790259078516918123e+00
1.315908552150384971e-02,7.258592554045326453e-03,-9.793801890494048479e+00
-4.140269677552054634e-03,-4.404500522962211291e-03,-9.790745607425359154e+00
5.859995415176660200e-03,2.993847117519404365e-03,-9.792803691694253132e+00
-5.946445105897139221e-04,-1.625407348443677494e-03,-9.796887134147157283e+00
2.927205899218163470e-03,6.788721772467951098e-04,-9.803247374101090372e+00
4.739460418404992971e-03,-5.572791882175861557e-03,-9.800956529141576112e+00
7.144932491622665860e-03,-1.832009396121569034e-03,-9.793177025330185970e+00
-6.015495486295791006e-03,5.456739829094897284e-03,-9.787487585925804368e+00
2.298977226384129116e-03,-7.797952127463730898e-03,-9.795272245865950467e+00
2.304708250840453373e-03,-1.668871350095479022e-03,-9.800037179291425815e+00
-3.567349691141399794e-03,1.414568289601100207e-03,-9.787744561572701230e+00
-3.118054335131543921e-03,-1.392864371328781205e-04,-9.790401358482606398e+00
-9.487038431722141915e-04,5.154849551201009725e-03,-9.800528371201520983e+00
5.764344364850311660e-03,-4.679996920454503918e-03,-9.798781959932863828e+00
-9.600834883943747122e-03,-6.657313100283914408e-04,-9.797879260589558825e+00
9.991331525925687112e-04,2.755249661547417954e-03,-9.798610977313176207e+00
5.169436884938673898e-03,-5.126272956214125535e-03,-9.796037493325398415e+00
-2.938933008943281789e-03,-8.257090999245271512e-03,-9.794248066671526587e+00
1.157559341323174257e-02,-2.983364982181900549e-03,-9.800008688736037143e+00
9.912042090285635987e-03,1.123472744851724048e-05,-9.806379252484040521e+00
1.725218232039466351e-03,-3.395053055257210139e-03,-9.799745939088229107e+00
-1.780770253453825081e-03,2.470710508390403654e-03,-9.798517484742280459e+00
-9.742527778442354805e-03,8.638134732272492212e-04,-9.804946506817213248e+00
7.545081838267268456e-03,-2.426776068676896915e-03,-9.791305905239465091e+00
1.084369127085387744e-03,8.166257237921407952e-03,-9.793898789724375220e+00
1.900975309519220644e-03,8.277871512619276034e-03,-9.791982876083359599e+00
-8.658513100034953905e-03,6.224393831233565209e-04,-9.791765673674987625e+00
2.169665834854583777e-03,1.096202005544737179e-02,-9.798236494718542744e+00
2.965035288060889141e-04,3.684513700812456181e-03,-9.792027949252540608e+00
2.369734173353846111e-03,-3.836436412401466201e-03,-9.795405512895603906e+00
3.362297627617599153e-03,2.743068099971900748e-04,-9.800718202694321590e+00
-7.110752610371156093e-03,8.638697316184393640e-03,-9.798122606400070822e+00
-4.113442767615970060e-03,-8.646636298030657090e-04,-9.798112648809700787e+00
-4.549906308808394917e-03,-3.940223408762855671e-03,-9.799578246069049925e+00
3.897125991958548703e-03,-3.946697059833942367e-03,-9.792257672891302889e+00
-6.769704137276750383e-03,1.635042835967994714e-04,-9.795345989926477870e+00
-1.487465200175338859e-03,-4.873308136120007433e-03,-9.795017052796691104e+00
4.634704094604817810e-03,3.579154496510909399e-03,-9.797839307435138423e+00
-3.838763424912219370e-03,-3.275584511176385296e-03,-9.788112679691744589e+00
8.152919808609776151e-03,2.375157388586015498e-03,-9.779251659788375406e+00
-1.358736613368077611e-03,-4.520420070621679332e-03,-9.787509120061576695e+00
-1.712408052379314760e-03,-4.861779645515063378e-03,-9.796419254782030350e+00
-5.111941387626129166e-03,7.535222824302268210e-03,-9.796290878062043461e+00
2.607509628853785493e-03,-3.694078534659804873e-04,-9.783792220393333849e+00
4.387079515280676092e-03,-9.299377132887953409e-03,-9.793654439808749501e+00
3.846357848348211025e-03,2.849346281626348974e-03,-9.791365673502291145e+00
-1.979514659872675525e-03,-1.295859729433126648e-03,-9.794691919409421743e+00
7.960278367005305805e-03,-1.019284504588827828e-02,-9.801576167694131314e+00
-2.087928905037732003e-03,2.090917007072181678e-03,-9.789352068173341692e+00
-1.178578120223874480e-03,4.445284500203412412e-03,-9.794187891141703517e+00
-2.771431611400527410e-03,-6.366653501675669652e-03,-9.789366143270299858e+00
-3.503926648558093604e-03,9.155445106438014555e-03,-9.795433507375905791e+00
-5.795428942723947555e-03,1.499576508320672567e-02,-9.797308821924623601e+00
-3.727373127224446227e-03,4.650839300537736552e-03,-9.789827745997310871e+00
2.242680843468591780e-03,-4.531834798189838219e-04,-9.800919099720355021e+00
1.805301506142896950e-03,2.692869642672324725e-03,-9.799083634228464845e+00
-6.208151938998346386e-03,-7.558903431381728578e-03,-9.798704988628177404e+00
-5.027911408559243220e-03,-9.512933584207223722e-03,-9.787967400555110942e+00
1.300544218066102984e-03,5.130470981295067595e-03,-9.792174592976900627e+00
9.027454786373509356e-04,1.162554561942642697e-03,-9.796913287446649576e+00
-3.183943455387098966e-03,9.761256390546713731e-04,-9.787564442396833542e+00
6.365060735550637401e-03,5.506305927094799768e-03,-9.796302452665146987e+00
1.143424141030238792e-03,-1.559300508709657741e-03,-9.791312514244603804e+00
-1.055039652405790002e-03,-5.900102042723938921e-04,-9.793115505377159025e+00
-2.348694738435884617e-03,-1.779768367322322935e-04,-9.792362694704184634e+00
-8.249798194481383282e-03,5.669411149801270415e-03,-9.794364614636080546e+00
1.728235291325717730e-03,-2.408269897677953880e-03,-9.788659161000866860e+00
1.254025177318398784e-02,1.458473642471637584e-03,-9.792789457283559429e+00
-9.667226664846267567e-03,-1.262863077112734737e-03,-9.792618809445757577e+00
-4.737093850807709387e-03,1.894373023821454768e-03,-9.791000686906530248e+00
5.124966980621829295e-03,-2.757456096659759767e-03,-9.788795286833249065e+00
5.013112443218436902e-03,2.898750015435019867e-03,-9.791896719391319337e+00
-8.501866696673507145e-04,-3.978927865759790405e-03,-9.797854094119372803e+00
4.043446771466628446e-03,1.048721082278220203e-02,-9.794060115540537126e+00
-8.301438056322768891e-03,-2.016687641115411274e-03,-9.783184071522688541e+00
4.571158066228034854e-03,3.301409728424857266e-03,-9.800245763241639096e+00
2.225398477411228565e-03,-2.919469921297599465e-03,-9.794853702424305197e+00
4.518479724525451512e-03,2.622245936873750499e-03,-9.795918109661148065e+00
1.672880052406713154e-03,8.025673394713538425e-03,-9.797645937540869099e+00
-7.660457429083543726e-03,3.920515007786493089e-03,-9.791477979329421544e+00
-3.129334007138846914e-03,8.008441248386070216e-03,-9.801186312788566113e+00
3.457142586796746898e-04,7.155058300350528901e-03,-9.793874812157980614e+00
5.171792484578843964e-05,3.975017771247525006e-03,-9.779335637453607788e+00
-3.608352875154608504e-03,5.509286535860775415e-03,-9.798275836725181875e+00
-5.065158015241777618e-03,5.536385250374335201e-04,-9.790316771998462286e+00
3.469107828370325813e-03,-6.275331244869932802e-03,-9.795223650337542054e+00
3.597143989551493393e-03,3.809214890377501765e-04,-9.796531941531284815e+00
3.557042254655950250e-03,2.837851831403936324e-03,-9.793655547311191256e+00
1.433660821482338112e-03,8.446156157028148967e-03,-9.802237783126358295e+00
-3.436377527119856452e-03,1.440249742072804030e-03,-9.792404836702537807e+00
-3.916773885006307951e-03,5.870561282825856320e-03,-9.801695656053714956e+00
2.099675813422065447e-03,5.099129007176596111e-03,-9.791304761193446282e+00
-5.190778297738258803e-04,-3.749074547021339493e-03,-9.794171105491315643e+00
-1.460617000368099206e-03,-3.360333821526416409e-03,-9.796765579591330209e+00
1.151005066937257470e-03,-1.252418933330578556e-03,-9.794033868423735356e+00
-4.592226278539336161e-03,-7.998175215337769914e-03,-9.799826310374648131e+00
3.990281983714111941e-03,-1.836816827739432565e-03,-9.785421980582540868e+00
1.167813141643473177e-03,4.526470141093855669e-03,-9.798447455048862054e+00
-5.462009156555521893e-04,-7.574759095803651823e-03,-9.787961067282623162e+00
5.576068808382616919e-04,-4.663769370427571330e-03,-9.783276297898664708e+00
-2.924339526167299159e-03,5.904471006175086162e-03,-9.798991995384049858e+00
-2.275693315482704216e-04,2.054574851782960555e-03,-9.797293649499337675e+00
-8.795610858793267116e-04,-7.519272406883889233e-04,-9.796876599973350253e+00
9.774047130003062252e-04,2.003664945578571659e-03,-9.800158364166021485e+00
-2.380169169743305525e-04,-4.428963452985444464e-03,-9.803111509585223260e+00
8.546497703849709540e-03,-3.875533928801867464e-03,-9.795066075758528612e+00
4.239275553204907045e-03,-2.679953220594722286e-03,-9.796619007131926793e+00
2.503054228413127279e-04,-2.920418909077981550e-04,-9.802810668110767622e+00
-1.061568463241351241e-02,-3.499336627327618264e-03,-9.793327767659528504e+00
3.705509477464780446e-03,2.165481126915133267e-03,-9.795144137065435075e+00
-5.103679709307471987e-03,-1.444969179636159404e-03,-9.795704489921222446e+00
-3.445134092297682821e-03,-5.350611081355183783e-03,-9.792063849257530705e+00
-4.015395580883832950e-03,7.701879810300803035e-03,-9.790552742172748069e+00
-2.584043590053736617e-04,4.743585866956850634e-04,-9.797675378539567603e+00
-6.020665414802373570e-03,-1.334818018787309150e-03,-9.784527990287926968e+00
1.023232835797913522e-03,6.176160787801310281e-03,-9.789394828613566801e+00
-4.250537846921596634e-04,-9.105383557015070016e-04,-9.793680426732940703e+00
3.836773793258650960e-03,-3.558725279177165322e-03,-9.798116424347094622e+00
1.896719627141981194e-03,-1.118296531781199504e-02,-9.798434855229020357e+00
-5.352519467562194717e-03,1.689134123192284186e-03,-9.784750971545381759e+00
-9.970159269395723750e-04,3.772676445956066327e-03,-9.796684362257302325e+00
-1.017174622060354862e-03,2.535803522397531151e-03,-9.800594446492317147e+00
-4.660039692802089503e-03,4.577008483485674704e-03,-9.802940701329454498e+00
3.878500169125830965e-03,2.581668325333370990e-03,-9.803465672896900074e+00
4.632119940682656416e-03,1.645994556988957143e-03,-9.794818280730776650e+00
-5.790110036113542934e-03,-3.031514181791170569e-03,-9.803213372099154554e+00
-8.276667138652198802e-03,-9.664083275514656624e-03,-9.796329468995011780e+00
-1.548937420570936380e-03,1.299428341691403728e-03,-9.794865955419151504e+00
-4.452714685345495610e-03,7.317057625409284331e-03,-9.799933346191878059e+00
1.207735373786539626e-04,1.031494539437856177e-02,-9.791330099887712635e+00
-1.014869813305202886e-02,-2.104660128340914236e-03,-9.796496491248738891e+00
3.428513388602458592e-03,-1.648113612395340046e-03,-9.799179954052030794e+00
2.312488291555514670e-03,4.695950360264292307e-03,-9.796876947310757089e+00
3.258360157649976482e-03,5.486087091216197524e-03,-9.795856454460320606e+00
1.460206578873978183e-03,2.087379671981270425e-03,-9.792312783173301227e+00
1.825410436795225607e-03,-4.805290139481509064e-03,-9.809457628574669741e+00
-8.515733703978791216e-03,-1.969929053349476350e-03,-9.798926868843857108e+00
5.477983761522904269e-03,-6.187405555961921454e-03,-9.793882076155950855e+00
-1.363330827441126521e-03,-7.212290705383009488e-03,-9.800236705086552647e+00
-2.065543285844203755e-03,3.061478305459705129e-03,-9.793622315652767085e+00
-1.021745219252890051e-03,5.107938105313278299e-03,-9.793910170789862590e+00
8.152346971863010626e-04,-3.069596267186435693e-03,-9.796151718121823393e+00
8.271133177200748823e-03,2.529825023494552093e-03,-9.798666205224732195e+00
-5.034337329548372805e-03,-2.085447220213218576e-03,-9.790324386281458402e+00
-7.182502924305936808e-03,9.641546646324574126e-04,-9.791687785678911737e+00
-5.595490389204299704e-03,-5.458822488811554061e-03,-9.802444367079610643e+00
2.120326626887658605e-03,-2.558427954325613596e-03,-9.792296152234332141e+00
2.201191736409438982e-03,8.930331035709324072e-03,-9.790733753003058482e+00
-8.400194674838834270e-04,7.194248073105641642e-03,-9.789641892627827247e+00
-6.455196728291402730e-03,1.060834671256302795e-03,-9.800259184335697427e+00
4.839128551554916155e-03,-1.002577474987924322e-02,-9.783362300819417712e+00
6.840532376067120883e-03,5.111916108348689381e-04,-9.799411887939726284e+00
3.928663939221701921e-03,4.834029321250008469e-03,-9.790853829348217019e+00
6.863301033170316791e-03,-6.173922137611975725e-04,-9.799744939111771913e+00
-3.546850931429124196e-03,-5.846337443790341343e-03,-9.798332898978566519e+00
-2.053119603314700232e-03,1.584148152611668486e-04,-9.789263035373595656e+00
-4.508814717867111119e-03,-3.475728716048207684e-03,-9.798192292251981073e+00
9.503235020282177047e-04,-6.364206727843799843e-03,-9.792485107529174115e+00
2.243471676360991006e-03,-8.520901336925175689e-04,-9.789785404248146250e+00
-1.580534674542744770e-03,5.758086287202713802e-03,-9.799675121780433429e+00
2.258750810513466580e-03,2.220878783788307175e-03,-9.797761570427182320e+00
1.676367353197549554e-03,-5.811347051488302464e-04,-9.804781326166430944e+00
9.605210168822119789e-04,1.357961515228960385e-03,-9.784745337217472638e+00
2.575040460065303790e-03,-8.032799970372787521e-03,-9.788147742496937198e+00
-7.217599968004453394e-04,-1.063919824079834187e-04,-9.792771303727825227e+00
-1.054825731407360405e-02,7.326908417224787520e-04,-9.788100088364084073e+00
-5.368699333378836903e-03,4.632693070792355712e-03,-9.798245721123066687e+00
1.900716505597519141e-03,-2.220415347406506663e-03,-9.795565177813314151e+00
-3.352805052292481044e-03,-4.476664362779891188e-03,-9.798155949840767320e+00
2.165112498598506519e-03,2.781554900391394140e-03,-9.796238185671708010e+00
6.147439866883030622e-04,6.395402311935102432e-03,-9.797375142657360314e+00
7.323920881748238049e-03,-5.307984877528343359e-03,-9.792163185413791382e+00
-8.647439514521741005e-03,-5.874470933362259568e-03,-9.794642709673023973e+00
1.654073175423078886e-03,-2.012510679681483745e-03,-9.796668619286327484e+00
2.411243738561593807e-03,-3.521405967087397598e-03,-9.795033073563999437e+00
-5.783439513131761502e-03,4.800346867700206431e-03,-9.793562864302328919e+00
-4.788408404205589212e-03,8.285414911103700791e-03,-9.801481949492266921e+00
-1.350122445479638462e-03,-8.783366247282067352e-04,-9.794214169969658101e+00
6.684896117813423147e-03,1.361702445720442984e-03,-9.789364632061001714e+00
1.596073978771362723e-03,2.351897887522612189e-03,-9.788879578785492086e+00
-4.902357292581730093e-03,2.294885320851791080e-04,-9.802040423149055215e+00
3.732373723248448311e-03,1.515842215995860621e-03,-9.788566614091829265e+00
-6.046446115119829927e-03,5.057076413240613362e-03,-9.792206638665307494e+00
1.699268234130923072e-03,8.328279792594102393e-03,-9.803393197737586107e+00
1.080002953093340753e-02,-3.800407116134685639e-03,-9.796452515978513631e+00
-3.912534434382163116e-04,-4.632488599992725352e-03,-9.796318803824485499e+00
2.487034880954614325e-03,4.867158979091064201e-03,-9.787000058675628722e+00
-1.327842774334022822e-04,3.633404947796100085e-03,-9.792208336123430001e+00
-6.347529304219317464e-03,-3.388602757439598129e-03,-9.797044887067961838e+00
-2.981425144294171017e-03,-5.380323251337589853e-03,-9.800217895220152187e+00
-1.245431219939342748e-03,6.568699077035218374e-03,-9.792834267013297733e+00
1.129077279111217677e-02,-1.093199693361782045e-03,-9.787826888989282992e+00
6.234400313801174466e-03,-4.690877003397508384e-03,-9.791360046741051093e+00
-3.191664341518699180e-05,-2.767762247554100483e-03,-9.802576582625231794e+00
5.547569177240261121e-03,2.960978061916056878e-03,-9.792137721810552975e+00
9.934475558181471433e-03,-1.568985285069283021e-03,-9.782736222762068223e+00
-8.886252960914640476e-05,-1.338898730226933433e-03,-9.789804571110256148e+00
-8.930509960930923044e-03,-3.912313198542852893e-03,-9.790985978869381157e+00
-4.968107303293884183e-04,3.194048711996378635e-03,-9.795349815191798371e+00
6.799802988213915836e-03,-5.886760166542098251e-03,-9.788628863939422331e+00
-9.895625100495375817e-04,1.218760970471631337e-02,-9.793592399046145758e+00
-1.615629397238934608e-03,4.976747247315664591e-03,-9.789734869622861879e+00
4.333224980297734584e-03,-4.671013042103332874e-04,-9.796997767767065213e+00
-1.653090005272661773e-04,2.831360087615326666e-03,-9.795733433725008155e+00
-6.063384152282393080e-03,-5.450858872886319047e-03,-9.805839868552915561e+00
-1.001701791632395727e-02,-1.761153266393022335e-03,-9.805308746798749198e+00
-6.855575953499924886e-03,3.479985615084127404e-03,-9.784161433322715595e+00
5.612277154620983919e-04,-4.936726786781946673e-03,-9.787413002563038589e+00
-2.285015175911804270e-03,-1.798393617663678577e-03,-9.797658407673141667e+00
6.242552466222330010e-03,2.033423992590407351e-03,-9.791849576449113357e+00
-4.932658671144612463e-03,-1.600010428634860912e-03,-9.795999898426703822e+00
-5.808708581586073671e-03,7.281581749775736800e-03,-9.792240951096340851e+00
4.244600158156644314e-03,1.033885006952984555e-02,-9.798309789937835745e+00
-2.817605510486461632e-03,7.051194190419707124e-03,-9.792404123742970867e+00
-3.534078169798188056e-03,6.655584983705963020e-03,-9.794733733922292629e+00
-1.597715029395850974e-03,3.585890342723121148e-03,-9.796397767448645766e+00
9.141826311543515843e-04,1.131343797403519449e-03,-9.801992886730864996e+00
-3.046806729331064285e-03,3.984375879163905808e-03,-9.788045409997826241e+00
9.774301259496241331e-03,3.699468301447283612e-04,-9.793990363819290224e+00
4.303658295247385487e-04,-1.019299409587824494e-02,-9.787671249234859872e+00
-3.919657775622760465e-03,-2.554426099052593108e-04,-9.791628649930148143e+00
5.703928085867625113e-03,-1.262750864103330539e-02,-9.798436060593111563e+00
-1.215602509086372539e-02,1.131500697040590739e-02,-9.796386627582650775e+00
4.322864295348879948e-03,-1.542074076606010430e-03,-9.795926256024774403e+00
-8.588980007427316973e-03,2.742927197580621174e-03,-9.800234077391765553e+00
-2.881306920652774647e-03,2.001145432607560632e-03,-9.794082438950281855e+00
5.390041003199434570e-03,2.606121786207678693e-03,-9.787970120163546284e+00
-2.966100141158323471e-03,8.491993663856061900e-03,-9.787003470470610367e+00
-1.661819803745930848e-03,4.002358282816794420e-03,-9.790231819894025023e+00
-8.835652996881716327e-04,5.095127490820285966e-03,-9.803352104549370338e+00
-6.540172877079793688e-03,5.616255085928844454e-03,-9.795145964839433006e+00
2.012081283195758276e-03,1.525654773393914651e-03,-9.795626414895322043e+00
5.185420322181235296e-03,5.571894603202288444e-03,-9.794672349248322973e+00
1.769108550987131493e-03,2.039751587485154512e-03,-9.787443307885100197e+00
-1.875795686643281493e-03,-1.379622961262358827e-03,-9.793873915288836329e+00
-5.694238869982000406e-03,-1.975082185500534604e-03,-9.797964556692766891e+00
1.737062135536399316e-03,-6.753296269679971708e-04,-9.797878820470319994e+00
-4.759269512985359269e-04,-5.879206049207844932e-03,-9.793549269970592164e+00
-4.329929830746089697e-03,3.770909554216225236e-04,-9.801618293172202456e+00
1.088301121597508823e-03,1.814796092216319030e-03,-9.790060425370660013e+00
-2.075162866788868733e-03,3.620250768647388998e-03,-9.791255907748254828e+00
-3.486593316494532909e-03,3.337623561909417499e-03,-9.786756971835590235e+00
1.798361431325803689e-03,5.516735474170299421e-03,-9.804284833583428949e+00
3.113386381292453878e-03,-1.512317354547856136e-03,-9.795784849911418846e+00
-2.681727813084933652e-03,-1.093009221516504830e-03,-9.791366921599600204e+00
-7.852929217422792256e-04,-3.050423145772431475e-03,-9.790470305470050150e+00
3.546979147468902233e-04,8.591081420773589994e-03,-9.794082200357275170e+00
4.936023236579482019e-03,2.919819547816743070e-03,-9.794804937121870836e+00
3.449982425907775936e-03,-5.491671835936905686e-03,-9.787611673815083790e+00
-1.713522735439330241e-04,-3.326825399168519253e-03,-9.797767220253497555e+00
3.269447028619137854e-03,-2.888359205708985176e-04,-9.800242259359910335e+00
-1.811628841078829436e-03,-1.146400192324195742e-03,-9.793339430494878428e+00
4.456041981715041719e-03,-3.538367047258998525e-03,-9.797553513558787230e+00
-3.067875141303438857e-03,-2.062458911317159409e-03,-9.791310560139560693e+00
3.037630509846430630e-03,-3.958900031943112657e-03,-9.793694226217585452e+00
-3.224622823206410062e-03,3.685048073769100433e-03,-9.787028916005903412e+00
3.374036176692146987e-03,-9.486649987078347654e-03,-9.793164054386782169e+00
3.085542611720557167e-03,-2.383776569820565509e-03,-9.802841561201846687e+00
-9.204575348191270517e-03,-2.906625637413363331e-03,-9.787689969488736708e+00
-5.474632274035744726e-03,1.757858939181760737e-03,-9.802019279428444420e+00
-2.720348711606908419e-03,-1.138531339656618027e-02,-9.800731932163655458e+00
-1.764648373342419434e-03,-7.048463470350492532e-03,-9.794555327952377155e+00
-7.787639722318075858e-03,-8.223420032903083418e-03,-9.804599344766021574e+00
-9.882320251519160527e-04,6.047911471736435937e-03,-9.796869659639815708e+00
6.768415123557206849e-03,9.367268379043562805e-04,-9.796371318217660829e+00
2.500223372498492323e-03,-3.523315525017126949e-03,-9.796014042906024955e+00
2.331296660959511578e-03,3.981405029816347668e-03,-9.792676111040867326e+00
4.386853393446112949e-03,8.775841284736314379e-05,-9.793049731029334737e+00
-1.584056285351200053e-03,-5.983172310436195990e-03,-9.791035377178323174e+00
-6.563676720930980771e-03,-2.738129514487204312e-03,-9.803340463780317648e+00
-3.961000401316332707e-03,5.522844743733181655e-03,-9.793242997011029516e+00
3.368737772623891743e-04,-3.087845647649577283e-03,-9.792870967528516601e+00
1.363241690088148363e-03,-4.099265574480602243e-04,-9.799025881335641230e+00
2.562582515594115460e-03,4.084572102873432393e-04,-9.797032397026923078e+00
2.354093607124719233e-03,3.678996246864474091e-04,-9.791830867141737116e+00
-2.515527089497332763e-03,1.734962103402748002e-03,-9.797799129122440220e+00
2.993651538460463234e-03,6.477983665806500519e-04,-9.800194527671136413e+00
-2.855321692078134025e-03,6.180475388963452971e-03,-9.791161068766657039e+00
4.298042727741116682e-03,-1.391793946564749652e-03,-9.795508606542849606e+00
5.186112020543655853e-03,6.031541535285908119e-03,-9.794568542834145575e+00
1.616945683954267628e-03,4.452747844620569620e-03,-9.787877476760215245e+00
1.633362294511887932e-03,-1.535021223682671472e-03,-9.803645872595151189e+00
-5.506853042962550973e-03,-4.809372481634878807e-03,-9.789488662163686072e+00
1.934385427634731499e-03,2.867506351724714159e-03,-9.793012737112356092e+00
1.342603988081525609e-03,2.102643927600483797e-03,-9.795438351451112524e+00
-6.406685435753212664e-03,-7.892894124695900432e-03,-9.800435425201728279e+00
2.685959696767435331e-03,7.562413655890498632e-03,-9.789056465715011868e+00
-7.363054634271697617e-03,-1.061717344585895787e-04,-9.804381067178889353e+00
4.132450766246710365e-03,7.107369966517035342e-03,-9.790856299123102957e+00
4.779807289597840132e-03,6.922430342486908875e-03,-9.782440875544359926e+00
1.468680446342711561e-02,9.819944498131647631e-03,-9.791300601655485991e+00
-5.356953672526853019e-03,3.970308734829491176e-03,-9.793256853186996125e+00
4.385951472753809970e-03,-8.429134917100908689e-03,-9.797840160610807203e+00
-2.122717970320250891e-03,-6.733233420975582445e-03,-9.796093395607817556e+00
-6.399499750499661231e-04,9.855926967003122204e-04,-9.794429038074770943e+00
1.720509951276554331e-03,-2.997060002576351200e-03,-9.799189361944330656e+00
-3.831266442690132654e-03,-3.310674421267454943e-03,-9.789581251322697852e+00
1.196710762217829439e-02,-5.363990190027333183e-03,-9.799074442029130694e+00
8.410024039902371656e-03,-3.213459879669637153e-03,-9.792375947467503394e+00
-3.105686420210189858e-03,5.978489235665748226e-03,-9.792475247211628542e+00
-6.112426461349923339e-03,9.502279417454243676e-03,-9.804470967435221951e+00
1.909336783643919263e-03,-6.338990626993724377e-03,-9.796623286952391041e+00
-3.864630385642552589e-03,-1.313260524565339205e-03,-9.789831758202019785e+00
6.323781908545410290e-05,-6.979994041617130530e-03,-9.790861476394704610e+00
5.327450639629282766e-03,-2.053988048197931838e-03,-9.803352452418371499e+00
7.309576542026302234e-03,6.514726822821549808e-03,-9.793653941159675469e+00
4.351693607609543636e-03,5.044719767466101764e-04,-9.791591607870117286e+00
5.003685853169188846e-03,4.383132955232527279e-03,-9.788509846456205921e+00
9.865092193683804456e-04,-6.453936129644564576e-03,-9.793852693200687298e+00
9.626088334830905932e-04,-8.861403338087549611e-03,-9.791539871208579271e+00
-6.198459751526595209e-04,-3.485954251454087029e-03,-9.785843115992733487e+00
4.908752986623936797e-03,-1.918080609787543335e-03,-9.790398471246135159e+00
7.710064647250339243e-03,-5.488026331337356005e-03,-9.796921082276979220e+00
-8.999423898067846969e-03,-2.321781183300214609e-03,-9.792083578968560076e+00
-1.092271577964036783e-03,-7.761240229891495576e-03,-9.798808023666746081e+00
8.769011467853777154e-04,-1.639976662295593171e-03,-9.796621322478049620e+00
-3.426343665328605240e-03,-6.711804003806249837e-04,-9.790645903591055799e+00
-6.760896257819855489e-03,6.643379738961947660e-03,-9.799872470170761574e+00
1.326789704785280057e-02,-2.022415560820004649e-03,-9.795411834414474939e+00
-8.078706533129809131e-03,4.766366236607377533e-04,-9.799508728142372505e+00
6.714321216499251344e-03,-3.939253938763562744e-03,-9.785697505593631718e+00
3.192441176186059846e-04,1.276025786156893349e-03,-9.785456699428751293e+00
-4.644487810115220661e-03,-4.466216754671804498e-03,-9.794803808852707405e+00
2.544531721583521283e-03,-3.686988744325438942e-03,-9.797229122864857587e+00
7.765156582321621967e-03,5.673066717109966073e-03,-9.788549644474285216e+00
-3.930820306963072816e-03,-6.620864332238039773e-03,-9.798775256930875699e+00
-1.123054154344269723e-02,7.559492080325740972e-03,-9.793861373348368815e+00
-2.827546001153611720e-03,-1.106387742373867149e-03,-9.783059258139845227e+00
3.490162192267600057e-03,3.942342302971748105e-03,-9.788443874300082115e+00
1.639400713200613209e-03,2.845957463087446949e-03,-9.792624807936581632e+00
4.581514839814066452e-03,-2.216850325603314520e-03,-9.787171744406942153e+00
-1.123341993480447137e-02,-5.851690900766088124e-03,-9.794026564875856877e+00
-7.622283266679196617e-03,9.148181668815067369e-04,-9.796402284846836395e+00
2.805722388912745401e-03,9.116050277810792057e-04,-9.799654879485300896e+00
6.906155428257311317e-03,3.780450246126907353e-03,-9.797416301657678517e+00
-3.265287570701263121e-03,-8.788483903056477182e-04,-9.794263342867042255e+00
5.700133001020666647e-03,1.658989126780902436e-03,-9.789308765339200136e+00
1.053169812733560884e-04,2.452868063821253813e-03,-9.803188256774065579e+00
3.264797072090773293e-03,6.131332084005394409e-03,-9.799359705330608961e+00
-6.255878140697852547e-04,-3.195449951530319327e-03,-9.797330590879973045e+00
-3.119923967649128500e-03,-4.373809236015411411e-03,-9.791007958408288303e+00
9.202257942420438708e-03,-3.189431582003536460e-03,-9.792587846197530865e+00
4.345445004935876224e-03,2.974720894982896529e-03,-9.796027600967548210e+00
-6.948104932440364589e-03,2.012844427627133101e-03,-9.789857575055737726e+00
6.713350419809531629e-03,-7.965255297029944989e-03,-9.799709286756035809e+00
-4.095228641270380783e-03,3.655664225725340204e-03,-9.796843908025181236e+00
-2.555858257190484015e-03,7.233712724253206668e-03,-9.786210803831387750e+00
1.854773574767100332e-03,1.011768743168514704e-03,-9.800472975307883416e+00
8.667519520227050505e-04,-1.065113856006184032e-03,-9.790270268160851330e+00
4.416792792748400892e-03,2.935868257833403397e-03,-9.785282800533066094e+00
-2.496375815068669138e-03,3.222028916374050037e-03,-9.794587554612082414e+00
5.500163544603986661e-03,2.031361124270401452e-03,-9.799080203364708197e+00
1.705735508231965300e-03,4.953872130822375291e-03,-9.794157086740394647e+00
-8.096652369974575688e-04,7.268642639538881777e-04,-9.797214103388181883e+00
1.228354441450644780e-03,8.810644223721172952e-04,-9.795421414886696709e+00
-5.511094534396508184e-03,4.526317688678588086e-04,-9.792293947809939780e+00
2.233750622917346235e-03,1.431455683553458855e-02,-9.800577778462706391e+00
7.455848034803867416e-03,-2.605118038901823945e-04,-9.789447197650742893e+00
2.050046785266100222e-03,5.346180507479196542e-03,-9.800814343473362555e+00
9.015109184827114434e-04,-4.158645579465821557e-03,-9.797789192172514205e+00
1.373414330297250156e-03,3.861351474084220511e-03,-9.786098279216840723e+00
-7.704258187813464720e-03,-5.495166923000918864e-03,-9.798116711536440704e+00
1.582669719018025547e-03,-1.243443549566031724e-02,-9.801039876309264542e+00
-4.586112549475785879e-03,-5.822103016614399440e-03,-9.792734785102299000e+00
8.770261978795870425e-03,1.570667082022991247e-03,-9.791769803576420017e+00
-5.704494692140637613e-04,-8.094076627042538297e-04,-9.798355201966792549e+00
-6.483060831698311474e-03,-8.781341687503366536e-03,-9.809516009073476539e+00
3.925940456535206499e-03,-3.482196865855651836e-03,-9.798562594025973738e+00
5.194437579526054415e-03,4.471895866443140362e-03,-9.785980206210654231e+00
-7.825152760334980889e-03,-6.262552602370187807e-03,-9.793202412602417084e+00
-2.237730260050199531e-03,1.832535262236298802e-03,-9.799345274258792315e+00
1.024998715590031513e-03,2.553284506023280527e-04,-9.794621549494788582e+00
-9.320015128927237880e-03,4.316765685008878799e-03,-9.801814391738503218e+00
-2.575355802129451494e-03,1.543087602417291676e-03,-9.793895489316900793e+00
-2.815839789274432372e-03,5.841451675017987795e-03,-9.793800196603282160e+00
-2.074563247108049489e-03,7.208296152209479500e-04,-9.797133084827413185e+00
8.786475152034643743e-03,-8.420529980831225865e-04,-9.789431522672019881e+00
1.337120044784632054e-02,-1.165454821122802794e-03,-9.794811875335403428e+00
-1.491001758861921263e-03,-5.334539893896282636e-03,-9.805380748713869110e+00
6.324184643319077752e-03,1.872830160323123291e-03,-9.797074000770795266e+00
-3.591916706821890199e-03,3.281830281479867530e-03,-9.791022961376214084e+00
3.459509392073301711e-03,-5.196745848361693189e-04,-9.786530533595662718e+00
1.662944643219020765e-03,3.346200489817512200e-03,-9.793350698702498747e+00
4.252331501505118502e-03,-2.908471808651761584e-03,-9.793570190562302713e+00
-4.202420108398369387e-03,9.931328007773672015e-03,-9.797873773867278757e+00
6.179995645479005074e-03,3.801839201376636286e-03,-9.790097847336470593e+00
2.839636416926145501e-03,-1.430144462049323835e-02,-9.792370387134949894e+00
4.141037706887038677e-03,3.477376849838571815e-03,-9.795493605972650286e+00
2.268531807026574754e-03,7.020767878830132171e-04,-9.785334297577223950e+00
1.533623515171898865e-03,2.020861087134196658e-03,-9.794739206330438819e+00
1.420909086261791477e-03,3.368651397690384814e-03,-9.794380892464541688e+00
-4.824072366506048162e-03,1.438066240248362000e-03,-9.797935544623459947e+00
-2.132327792596285746e-03,4.554891277950636613e-03,-9.797408229164993543e+00
7.368358118054926277e-03,-4.506180612852636949e-03,-9.792973057565886208e+00
-4.294470413170162898e-03,3.524943907786714289e-03,-9.785038667896165165e+00
4.925683765909341302e-03,2.941563242780580699e-03,-9.793536538376374168e+00
6.779828164521781511e-03,-5.593785095546252974e-04,-9.793784112858595847e+00
2.822657333902070607e-03,-2.877408026057962781e-03,-9.793966769134003769e+00
-4.061685744729469708e-03,4.826209464058772020e-03,-9.788841252188481334e+00
-1.034995890972364996e-02,-8.124460126507665469e-03,-9.789714379370549224e+00
8.543410215328401790e-04,2.896214722812563095e-03,-9.798777235346532777e+00
3.056770517198101507e-04,3.494691034303853885e-03,-9.797878104353182849e+00
5.842901102259399904e-03,-1.778714411849276287e-03,-9.786098780129323771e+00
6.674461462480323591e-03,2.129976099532775256e-03,-9.797900963216941150e+00
-2.533996269348485954e-03,4.908367343195685698e-03,-9.800788948989300309e+00
-1.447396888685454968e-03,-8.182120715135568143e-03,-9.791795304082475226e+00
8.181337219041932493e-03,-3.192140120054400552e-04,-9.793525164478820599e+00
-1.943908723481279060e-03,-6.792369067007994130e-03,-9.804725067786742798e+00
-1.558772928034634535e-04,2.414365410268166142e-03,-9.799218352404718502e+00
5.239038687270439025e-03,1.048322870377061409e-03,-9.792532853674957849e+00
-1.048417961929351203e-02,4.317098699594216007e-03,-9.789839011371670452e+00
-7.096960814185399036e-03,3.371879347780544316e-03,-9.796049936945149028e+00
-9.142655173075400765e-03,1.381186420791758818e-03,-9.803529344211000307e+00
-6.461765821632020623e-03,-7.816534655193520947e-03,-9.801020694558859603e+00
-4.808886058846109472e-03,4.667686716407303156e-03,-9.791448163599820731e+00
-7.051245282526049686e-03,-8.122176841405601491e-03,-9.792079437867698744e+00
-4.446068676708374301e-03,-1.337316428235545834e-03,-9.792303241449324958e+00
-6.180750996839493375e-03,-5.869808274727682240e-03,-9.793718756669280268e+00
-4.217520631671879076e-04,-6.554476226488145131e-03,-9.791862094270006978e+00
4.686719933356007714e-03,-5.786537213456383229e-03,-9.793833943635233297e+00
6.404490814678226451e-03,3.161827402288461090e-03,-9.795885563555854603e+00
-6.226735585742433025e-04,6.524189045671917320e-03,-9.796924520620468257e+00
7.514728308768872482e-03,6.650304396713079165e-03,-9.806876482622936209e+00
-1.678301145153552904e-03,4.286702860708389851e-03,-9.794883986028505518e+00
-6.825852494000883910e-03,7.393845140906398113e-03,-9.790721689101932412e+00
-9.794571916812374896e-04,-7.125807566066413856e-03,-9.801613782067107650e+00
-3.689155383003123526e-04,-6.898016141719160582e-03,-9.797949844092880056e+00
6.924006035571520466e-03,-6.970342910570114132e-03,-9.795913743951512487e+00
5.166063024025683605e-03,-3.124885861909792008e-04,-9.791295497431764971e+00
-4.029324872342519327e-03,9.370527434436698444e-03,-9.805155727880617178e+00
-1.570003936748472217e-02,-1.965066038198953006e-05,-9.792579159251559417e+00
3.398535715174743916e-03,-6.618900029762766514e-03,-9.792606155423850822e+00
7.004509439539791625e-03,-3.423391727074330017e-03,-9.798673892716802669e+00
6.774727282704765333e-03,1.303239309046227631e-02,-9.792077030473741672e+00
-2.623436244450118391e-03,-5.695268662861736712e-03,-9.781465886546300226e+00
-2.406565780060907194e-03,-1.095156300807949366e-04,-9.790050181340667734e+00
-2.149903933058468046e-03,6.697604887189492241e-03,-9.791355922085708485e+00
5.110435602059763133e-03,-5.802455868520623242e-03,-9.788254563232328564e+00
1.438736909950458437e-03,-3.712642150038114250e-03,-9.788828697553363156e+00
2.305786973049633697e-03,1.263237098501069234e-03,-9.795442082281740070e+00
3.410561571703813735e-04,-1.181861196983599550e-03,-9.797912052922047366e+00
4.873384034413615756e-03,5.174276291898548090e-03,-9.800410549135349925e+00
-1.185123169362733639e-03,4.641676953237755185e-03,-9.795828552562239722e+00
-7.373153916905188406e-03,-5.041951529212732042e-03,-9.802614047183693557e+00
1.740526601716531688e-03,-3.476859165748138851e-03,-9.789288861852314838e+00
5.521096385891509362e-03,7.928843086122551020e-04,-9.802885994960449878e+00
-4.030196231896790611e-03,3.186633083662132257e-03,-9.792385750806817057e+00
2.416725654890808893e-03,-3.930804040343090721e-04,-9.787416122858754619e+00
-5.340082154317742948e-03,-5.228041564124310744e-03,-9.788299180222688634e+00
-4.397041224161314481e-03,1.831407878179503249e-03,-9.801049291546558351e+00
8.095383142389309377e-05,-1.512511424348810343e-04,-9.791605605824051040e+00
1.115095209743192234e-02,1.269360061759220761e-02,-9.792400227702733773e+00
-1.194161554653987893e-03,2.031470336286526554e-02,-9.791977317445017093e+00
5.150662478119656142e-03,-6.712999779709274235e-04,-9.789095251629285954e+00
1.003814920664128696e+00,-3.648527565475706991e-03,-9.791093152007341871e+00
9.967476130083060548e-01,9.618394453968139718e-04,-9.786416708772078366e+00
1.004704014708834858e+00,4.859919046505313685e-04,-9.795269317021659816e+00
1.006019477956817232e+00,1.753497253114308070e-03,-9.798393719862755091e+00
9.966613732011206928e-01,-5.365661467937046184e-05,-9.792336385528097153e+00
1.004131650621846727e+00,2.768819482106112031e-03,-9.790983829872747179e+00
1.005311945756587777e+00,-3.568930936830065886e-03,-9.802430485447628072e+00
1.015089152100944192e+00,-1.079284949746413431e-02,-9.799847410557088523e+00
1.021313408378949905e+00,-1.514346610995317456e-03,-9.797104895776065803e+00
1.019714744112560911e+00,8.850631352645797409e-03,-9.800245163598527043e+00
1.024513173510751995e+00,6.300918629305070481e-04,-9.794869297135788244e+00
1.035852779532913548e+00,-6.754561424804824419e-04,-9.799177904672783157e+00
1.038832121178633106e+00,-7.150189768679170166e-03,-9.807417657492408125e+00
1.037083907384472425e+00,-5.673473874526464324e-03,-9.804937603202567686e+00
1.056046776746524918e+00,4.360181559216642910e-03,-9.807767808547973587e+00
1.063283490300732659e+00,-2.983732594426194689e-03,-9.806734390602436235e+00
1.061000922914245415e+00,-8.256112856987504744e-03,-9.805069263450761241e+00
1.074358155464965936e+00,1.793425652186622817e-03,-9.816343080673336274e+00
1.091567736181023873e+00,-5.810417440886073322e-03,-9.811315044818879727e+00
1.098002216211986681e+00,2.370624191960113598e-03,-9.813574816619652808e+00
1.103003920092963552e+00,1.521074125651209949e-04,-9.818652655553435693e+00
1.108572630704269590e+00,3.120953529539865177e-03,-9.821734515111367969e+00
1.125309006045973836e+00,7.003528516211028968e-03,-9.821149745252848007e+00
1.135426897280863212e+00,-5.892687009864534505e-04,-9.818357158358056225e+00
1.151327082148914105e+00,-4.933324771604389539e-04,-9.830912402087404800e+00
1.153627501005323852e+00,-3.661374542206658270e-03,-9.829474364616105575e+00
1.173592639854351249e+00,5.233779499324618147e-03,-9.835460059013184875e+00
1.174868964153320761e+00,-1.734083138081501507e-03,-9.833777732738324673e+00
1.208675688827491657e+00,-5.142512165341562615e-03,-9.824236315765835670e+00
1.216544133901206193e+00,-4.553506528350882709e-03,-9.843520292989733633e+00
1.223287863901418637e+00,-1.286479696157017977e-03,-9.838479770110462042e+00
1.236824405118913006e+00,-5.389596718525692257e-04,-9.848357460218226223e+00
1.262129460749910725e+00,-4.763231557207225171e-04,-9.842085284091373509e+00
1.274648878286523734e+00,-4.229371613054258398e-03,-9.840307748478608119e+00
1.300584594851792675e+00,-1.142076515430483219e-02,-9.849596454122631073e+00
1.298293238325268995e+00,-1.264736812066345403e-03,-9.853816888000244134e+00
1.329018123462288425e+00,-8.257317354381732638e-04,-9.860676330869257100e+00
1.337746072787376450e+00,-2.548679314239075608e-03,-9.861945654183365662e+00
1.364348898284051481e+00,2.891433023466195352e-04,-9.866098074389990202e+00
1.394447057045137051e+00,2.493441094587519995e-03,-9.869246615253619126e+00
1.407250100161133721e+00,4.254791271488203401e-03,-9.871198735026050386e+00
1.425013044960810493e+00,3.263829863837790137e-03,-9.877537960478376178e+00
1.443026026035242992e+00,-6.282372766378924341e-03,-9.876640154388713455e+00
1.468432718324468977e+00,-2.585119516493335819e-03,-9.875259810851865439e+00
1.491289166918659204e+00,-6.374084585179501557e-03,-9.879732683899874246e+00
1.504696106877991602e+00,5.832304750096489222e-04,-9.879532169665584007e+00
1.530197041344735887e+00,-2.099156513264712441e-03,-9.884458765886712683e+00
1.555538401437596363e+00,4.283756404578224763e-03,-9.894181724723866367e+00
1.579388003166479315e+00,3.740390366717756977e-03,-9.893693297610989035e+00
1.606438735020179198e+00,4.205905885727423930e-03,-9.907250657104388125e+00
1.618025121123835675e+00,6.433064780238820441e-04,-9.896609325180913075e+00
1.646250340646760346e+00,-1.014750891476157851e-02,-9.910804434854259881e+00
1.676238760136525174e+00,-1.255913063976220150e-03,-9.905130200040566990e+00
1.709076517827288200e+00,4.725925077809165972e-03,-9.924371027462431272e+00
1.726644632463026019e+00,6.345773502895086550e-03,-9.916007301800281226e+00
1.755068556595825280e+00,2.715331865303825202e-04,-9.919774877350150177e+00
1.784987531491523782e+00,5.493841730632215495e-03,-9.926999394702621160e+00
1.815090240935286259e+00,1.835667644535079199e-03,-9.934278751725587497e+00
1.840529460345638135e+00,-5.980572448256320055e-03,-9.923946963382917374e+00
1.870117803330885176e+00,-1.104063906982126302e-02,-9.939241464639637869e+00
1.901422629216141802e+00,-7.846970756121136176e-03,-9.935909268815313666e+00
1.927579770081814248e+00,1.499171439739646053e-03,-9.930688081434007941e+00
1.962714597382474668e+00,-1.938018728873984074e-03,-9.935662705042570764e+00
1.984523955945758367e+00,-5.022765475341429628e-03,-9.942688058286858421e+00
2.017843186378127651e+00,-1.187802947517480013e-03,-9.944208555040281894e+00
2.038616680828592376e+00,1.952435444416405564e-03,-9.940439557109201019e+00
2.073231857712218407e+00,4.725813219788199833e-04,-9.952018675233162526e+00
2.116248611808595914e+00,-2.369070533654845604e-03,-9.948445513408449514e+00
2.135395943752075087e+00,6.148610454390298491e-03,-9.953217506408270410e+00
2.178642424305486269e+00,-8.856145682313715239e-04,-9.940369891387460299e+00
2.198955432687864864e+00,-1.894418157298365232e-03,-9.946127630258105867e+00
2.237395130270969368e+00,6.369990437465803020e-03,-9.943890975123071740e+00
2.267550413390093667e+00,7.482381468320976154e-04,-9.949201536673715651e+00
2.296769278760838695e+00,3.538073645496405653e-04,-9.943118645922217169e+00
2.330009197143648958e+00,1.281852933492360442e-03,-9.951368172554133196e+00
2.363841125832330192e+00,-3.356025522611326070e-03,-9.941671946634237145e+00
2.388797535562209973e+00,-5.458414774024348930e-04,-9.938923896162338067e+00
2.421081093472408519e+00,-4.925698262206326151e-03,-9.940832532886400230e+00
2.456651900888311868e+00,-1.477984940317580206e-03,-9.939916783595753813e+00
2.487847884052280190e+00,-1.604836227076268489e-03,-9.940611329521169992e+00
2.518779817682612165e+00,1.924751947268423739e-04,-9.932908611228986828e+00
2.551957507781166701e+00,5.225956834103184442e-03,-9.930175639770059348e+00
2.587177887794814612e+00,9.229863833014133843e-05,-9.930110402147484194e+00
2.622263933634650712e+00,-4.573337248619889668e-03,-9.923645274811953243e+00
2.653833907565356753e+00,5.413761483089621698e-03,-9.919988944349352522e+00
2.672441983244813635e+00,6.066575782934309664e-04,-9.919477301057012752e+00
2.702575564478603365e+00,8.717057600175246584e-03,-9.918895388026220061e+00
2.736633503603807416e+00,-7.777105733683779831e-04,-9.912489526746732338e+00
2.760494209712429647e+00,-2.489741100334333466e-03,-9.910003778415777731e+00
2.792695110074928877e+00,6.621361702204671233e-03,-9.907374801860788338e+00
2.826699674579558952e+00,4.161662808001840783e-03,-9.906220564202339318e+00
2.855619050870283449e+00,6.899904332964256967e-03,-9.892883677369741946e+00
2.888119011763262467e+00,3.467052286403023240e-03,-9.901461938310406552e+00
2.921302695508402714e+00,-3.574202453954950301e-03,-9.891909817316788534e+00
2.946957221128599702e+00,-7.153114665117832468e-04,-9.885519721048055430e+00
2.978684755985945287e+00,-2.864696869708114896e-03,-9.895480684300380858e+00
3.000338165171137828e+00,4.864222078127535226e-04,-9.879507788568970383e+00
3.033582631316105616e+00,3.747281206564246920e-03,-9.882124215282900082e+00
3.054580778216350545e+00,2.618909068106313985e-03,-9.865606407038745473e+00
3.091647548108069188e+00,1.047678621497566973e-03,-9.855097324122464642e+00
3.120092002790815222e+00,-4.099567293054337883e-03,-9.858929779344730804e+00
3.143647945199554705e+00,1.421225786255371926e-04,-9.857744849009240085e+00
3.178500961981675310e+00,4.017260409198116292e-03,-9.850457858919993370e+00
3.200948372499388572e+00,1.389081013028919866e-03,-9.838138436103450957e+00
3.231913631918057472e+00,3.986755851352745926e-03,-9.839293312630838173e+00
3.263900411441839733e+00,-2.423155911263596887e-03,-9.827858735700811366e+00
3.287388210344879269e+00,8.025647923889106397e-04,-9.830307763100091023e+00
3.319365544693722914e+00,-5.592541059432641452e-03,-9.818867652128162149e+00
3.346124778504776298e+00,-3.562678457372317215e-03,-9.812508982755847597e+00
3.364156779455253155e+00,5.692826637888837027e-03,-9.803256281870964983e+00
3.399601407452634394e+00,3.413241793070662979e-03,-9.803308842520067401e+00
3.425144069247113343e+00,-1.409691149643369119e-03,-9.803194240184200936e+00
3.447281653389378864e+00,2.257263645657074051e-03,-9.796089251291011379e+00
3.474129702323303981e+00,-6.474333358152998229e-04,-9.791725294157799908e+00
3.508487269732774472e+00,4.902368594715364458e-03,-9.791311520616375219e+00
3.527840485148418637e+00,9.600334833223494568e-06,-9.779516727231623463e+00
3.552900853213877497e+00,-3.744496948556696233e-03,-9.773033504808909200e+00
3.580544668066087066e+00,1.869121252016020746e-03,-9.779557331921679975e+00
3.614464002261578823e+00,2.232345524991690257e-04,-9.770017036252575338e+00
3.638744097986968740e+00,3.146329251650874844e-03,-9.752011493005509735e+00
3.663614951167749378e+00,-6.904734679384092431e-03,-9.745389111934613879e+00
3.681559650674833595e+00,3.184118849609821403e-03,-9.749432769281959565e+00
3.705939699390961461e+00,8.848992313784017835e-03,-9.735068795725718260e+00
3.729308996764066464e+00,-8.378203853154499170e-03,-9.719882779229237713e+00
3.757543393102036333e+00,6.207038299603239578e-03,-9.733515279764459294e+00
3.778261794609288238e+00,-7.486540046777585139e-03,-9.723053909119848015e+00
3.801987205349097287e+00,5.040331242627507820e-03,-9.713333261957265208e+00
3.836256123148904074e+00,-1.021068148709611441e-03,-9.697576090229468093e+00
3.848839749671980393e+00,7.163355024804246921e-04,-9.699670660935799660e+00
3.871332016487134542e+00,-3.134203232420697607e-03,-9.696368076325004637e+00
3.907416593014122252e+00,8.332039465192049230e-03,-9.693097570757405634e+00
3.928424569449885606e+00,-3.351788171971393365e-03,-9.684852783526983089e+00
3.954190705599712086e+00,5.961020231337488262e-03,-9.671439186645853781e+00
3.963595843361166438e+00,-3.268837474383124494e-05,-9.670600182212657714e+00
3.996857654455090447e+00,5.621893418284964160e-03,-9.660055705120647929e+00
4.015600021885927795e+00,2.490571125716837565e-03,-9.660037410442674499e+00
4.036476050808682103e+00,1.586274933170619917e-03,-9.646189750055295775e+00
4.073928828185424678e+00,2.981052364191026822e-03,-9.636587689604713347e+00
4.080910977932654227e+00,3.018274154576897766e-03,-9.631016864114810616e+00
4.104456610028002217e+00,-4.867230302489939514e-03,-9.632039089680683119e+00
4.130457710648677505e+00,2.683718446379453233e-03,-9.624501698227428292e+00
4.154292095027750875e+00,-5.070529081994874267e-03,-9.613218598681536164e+00
4.181685217528938736e+00,3.427921906240471994e-03,-9.598945451557423070e+00
4.203169555018889447e+00,2.319939601987507181e-03,-9.589108079979068222e+00
4.211555652848420372e+00,-4.178921144184289012e-03,-9.585949369445472712e+00
4.236285625614796047e+00,4.491595148686271981e-04,-9.589338347515781180e+00
4.267530587444755774e+00,-1.922329748761323091e-03,-9.573587221084514098e+00
4.279360343549048373e+00,-1.079624564139921097e-02,-9.578386848960352751e+00
4.319758836954140868e+00,6.142901676895520628e-03,-9.554614840059953096e+00
4.334870269219528005e+00,-3.460413691710017246e-03,-9.549800558463127587e+00
4.355313737374785887e+00,2.865588736643703144e-03,-9.544447727113254842e+00
4.370495871661623788e+00,-4.407247010222040649e-03,-9.539576454387947990e+00
4.394658535742844485e+00,4.344980628009237518e-03,-9.544242330884634029e+00
4.411773721749733923e+00,-7.076188166275652718e-03,-9.525645079600549181e+00
4.433131519424663658e+00,2.376294653391443096e-03,-9.514649581991118765e+00
4.453400133535128091e+00,-5.030112878490494320e-04,-9.507673703927817854e+00
4.482793290064959635e+00,-7.017006145301468018e-03,-9.511354941284924536e+00
4.488359085402309212e+00,-1.691646217137069558e-02,-9.485761779962571083e+00
4.510541132763962402e+00,2.577169251627910163e-03,-9.477480505111090636e+00
4.547023239128288097e+00,9.895932927258042997e-04,-9.477116995377388164e+00
4.553659291451879199e+00,1.511829398179583613e-03,-9.472599565793716536e+00
4.574256672947788260e+00,2.980916307225676552e-04,-9.460901186003914276e+00
4.605589005649409984e+00,-3.100814944019628875e-03,-9.452858066869204379e+00
4.615622360745925690e+00,8.142514923118519127e-03,-9.453987927240424582e+00
4.645793418368231897e+00,-3.812993584338561243e-03,-9.446870270942369530e+00
4.650486164045190662e+00,3.808300753797303146e-04,-9.436993879594021806e+00
4.673286591732650486e+00,-7.901368632782897888e-03,-9.429759992700518012e+00
4.691159802089482689e+00,-5.914555031015818545e-03,-9.416550960162645367e+00
4.710199771132387525e+00,2.729135449679826082e-03,-9.409006987717821957e+00
4.731628034907899405e+00,7.013511725158246869e-03,-9.405163943983104957e+00
4.747431631302581501e+00,3.541112763775510625e-03,-9.396280904142656709e+00
4.769022005514315765e+00,2.145407497235752789e-03,-9.388362014022073154e+00
4.776769012454219698e+00,-5.041825354867067802e-04,-9.387074855624758740e+00
4.804381373492243590e+00,-4.645315660900238737e-03,-9.378267720921405370e+00
4.823212876874150901e+00,-3.761839193495216706e-03,-9.367676785095126135e+00
4.834295397999615496e+00,-8.079109187969229708e-03,-9.366721656214402003e+00
4.849577280499650200e+00,-5.046619593748294906e-03,-9.346627998205617516e+00
4.874154752643346633e+00,-5.043460458050156225e-04,-9.350430921415080476e+00
4.897288038285282141e+00,-2.837222438198706408e-03,-9.338046019731963909e+00
4.907184088511518993e+00,-5.256813635038523006e-04,-9.332495030692978588e+00
4.935887266123772932e+00,6.518127641908911737e-03,-9.326105461056103607e+00
4.951115591909586833e+00,-1.403694917436771336e-03,-9.309721210340088149e+00
4.966858273509592969e+00,-5.021169325686017024e-03,-9.310997455443452253e+00
4.976118990027758038e+00,1.670668851062555868e-03,-9.296074160882081827e+00
5.001993675854256693e+00,-5.685339492562256798e-03,-9.296210264049072691e+00
5.022972401849559176e+00,-7.336584813527283894e-04,-9.286099164203024614e+00
5.031396207085923500e+00,3.177829163298383024e-04,-9.277612049322167209e+00
5.046334591562045446e+00,4.619259140591516419e-03,-9.271968906021252010e+00
5.066307149286968681e+00,-4.404840760465697502e-03,-9.260410112688779449e+00
5.085599037898301589e+00,9.126361042770776005e-03,-9.254783916065509430e+00
5.107641436418981051e+00,1.242937218892192948e-03,-9.247882709535531376e+00
5.127361771878124586e+00,6.371008148170514323e-04,-9.238667550569303444e+00
5.140082802255308003e+00,1.087687153994143334e-02,-9.236122873800649558e+00
5.144806893549008997e+00,3.998400527912030107e-03,-9.230288341670441099e+00
5.170883610814992259e+00,-7.203477780121901770e-03,-9.214566570338751816e+00
5.178921995642025600e+00,-8.830338485702724644e-03,-9.211540022535681160e+00
5.200152163819715234e+00,-8.232745692146925575e-04,-9.208405017540805204e+00
5.221952602233988827e+00,2.378126004697546977e-03,-9.184756934571748133e+00
5.231969446081992103e+00,-2.229872647223216358e-03,-9.175934959746278707e+00
5.245470336324592253e+00,-1.813215441149136501e-03,-9.177567213202218355e+00
5.266230569249525040e+00,-9.412123798411477227e-03,-9.178973915971530673e+00
5.277144593324304189e+00,5.774153790350919878e-03,-9.156506925278879550e+00
5.290805030769839767e+00,1.621211938199455414e-03,-9.159538877421738334e+00
5.303660983967355413e+00,-4.125731945746353296e-03,-9.146173346012458794e+00
5.321662021261945874e+00,2.227865241960097237e-03,-9.147906879490237841e+00
5.342612562602941040e+00,-4.448582934919064662e-04,-9.125948004868966734e+00
5.345708676423956085e+00,-1.246990077271857436e-03,-9.131968479255508697e+00
5.376369924536271050e+00,-1.832882969854932563e-03,-9.122900722920467942e+00
5.384115192885502665e+00,1.478705066653690460e-03,-9.103513509530113623e+00
5.403873474878113647e+00,5.044082927098627114e-03,-9.101496719259817070e+00
5.409755436691488839e+00,4.850355237090731367e-03,-9.092740413400017374e+00
5.432487559236731656e+00,-2.665932019707792453e-03,-9.086828366800792978e+00
5.438791830270616856e+00,-1.014589619150256224e-03,-9.076408915775216357e+00
5.461108220122594226e+00,-1.189824416382377972e-02,-9.075392250483552914e+00
5.477529752475033042e+00,-1.957175588603600989e-03,-9.067621336339762195e+00
5.475200732176904950e+00,-6.531791831501485186e-03,-9.053486845173344122e+00
5.497077543814700817e+00,-4.710079891609990528e-03,-9.051785027229170666e+00
5.518659817113144683e+00,7.742611824063752070e-04,-9.043609042144820975e+00
5.531085253917775724e+00,3.996489863758892307e-04,-9.036597284608737013e+00
5.542391104553279213e+00,1.113843449394591803e-02,-9.034514760305530245e+00
5.553191352569976758e+00,-3.785914038267264390e-03,-9.019660748822234453e+00
5.572079372900290650e+00,2.507972014995050810e-05,-9.003335263238874120e+00
5.582181858454218215e+00,4.204477775100950304e-03,-9.000766541456631131e+00
5.588691981615838245e+00,-9.035497995689437340e-04,-8.996972824314697803e+00
5.603934331568638072e+00,2.540877311884867304e-03,-8.989998652205573038e+00
5.619379456985384991e+00,-6.018495715996018559e-04,-8.988420546859781979e+00
5.639800564994722265e+00,5.446286755984889975e-03,-8.982622471949113674e+00
5.651072457782423619e+00,-3.782028769816004991e-03,-8.968008563651089560e+00
5.661544041257171145e+00,1.114667616113990123e-02,-8.959366201472622748e+00
5.666316710865041628e+00,-2.093603705268978071e-03,-8.950706089449067093e+00
5.693714908167445188e+00,-1.279639884871745055e-03,-8.946384418744820266e+00
5.700865957598518996e+00,-3.952060872500381917e-04,-8.941480114493154829e+00
5.717945927628136360e+00,-5.843758507649781699e-03,-8.940716382446080246e+00
5.722491358700292352e+00,-4.081138752949958239e-03,-8.921716821592525548e+00
5.730698879757706088e+00,-8.623582742107439164e-03,-8.917867212135666577e+00
5.745082052869263656e+00,1.933573866533407591e-03,-8.910119471153086224e+00
5.763660938683986323e+00,-1.225308652549402487e-02,-8.902904576910477985e+00
5.777499026597970655e+00,1.031301964462682727e-02,-8.896125168906092284e+00
5.791002580594681426e+00,1.014777405819094818e-03,-8.887400170868046345e+00
5.798502274458139816e+00,-5.158825803421647482e-03,-8.885937967087095046e+00
5.815259026975797774e+00,-8.238394960607922646e-03,-8.869637985162144744e+00
5.833955436066797340e+00,8.025390416263645382e-03,-8.860591997453598267e+00
5.839222848495470686e+00,-2.797056952039442962e-03,-8.852073364266265898e+00
5.851564464197873683e+00,5.796150085908440865e-03,-8.853171418757879607e+00
5.863874616855319744e+00,-3.493762847329480968e-03,-8.831808842170691065e+00
5.869950807049919561e+00,-5.899356284708214953e-05,-8.832830753368194010e+00
5.887888747102751452e+00,-3.362333579845521326e-03,-8.829314665995948275e+00
5.887765368591472814e+00,-2.667821389729138192e-03,-8.820775594335234615e+00
5.912423555738814507e+00,-6.894688694254245617e-03,-8.816059267803334265e+00
5.921242363170337697e+00,9.103705815842970785e-04,-8.813356951679400808e+00
5.933152054656893881e+00,3.891323412301705281e-03,-8.803017553981437260e+00
5.939041335349586781e+00,4.144090688648655041e-03,-8.800174834640845489e+00
5.955686304902063632e+00,2.930798545066535827e-03,-8.793563693200217912e+00
5.960556118147931848e+00,-3.623642241638292110e-03,-8.787370868627759180e+00
5.985460090218806428e+00,-2.259613684594623337e-03,-8.774608321555870560e+00
5.981912638242933511e+00,-7.436427438565494479e-03,-8.764755127841450388e+00
6.003092914846029693e+00,5.877861496485379568e-03,-8.754206151418548743e+00
6.013102492858170223e+00,-8.532782049101878420e-04,-8.753428712578127602e+00
6.023681081037647544e+00,-7.920686397129048095e-03,-8.742981214156969827e+00
6.033487208812902125e+00,4.424349231166488025e-03,-8.751728921086620261e+00
6.050083226156498739e+00,-3.246951409074811442e-03,-8.734232548181694256e+00
6.064730524975802339e+00,-1.539728540477497366e-03,-8.724651370037451059e+00
6.066176289195682969e+00,3.765571090503500636e-03,-8.709908852399387058e+00
6.072437121843823782e+00,5.621254229652945973e-03,-8.706166346358365615e+00
6.079247002120728993e+00,-3.695876471858829636e-03,-8.698948478238424542e+00
6.094443600706100028e+00,-3.781206457946595639e-03,-8.699544420660849653e+00
6.103366333217543627e+00,-1.327171332746600492e-03,-8.695661420972333744e+00
6.116802629462592122e+00,-2.548064056433855477e-03,-8.679264112408686671e+00
6.121194605578782699e+00,-1.007354783726377217e-03,-8.679834651601925799e+00
6.144664596757545283e+00,-2.548095420240887015e-03,-8.665616130505272352e+00
6.150670530799555280e+00,-4.460235874634965909e-03,-8.660412029995896432e+00
6.156664008490687401e+00,-2.560778397304656288e-03,-8.663246096976303434e+00
6.173745753547917658e+00,-1.495556869033513436e-03,-8.650693259331875495e+00
6.180462681190160623e+00,-2.438441464527672364e-03,-8.635125360586254573e+00
6.177735656361105221e+00,-8.005068012145356718e-04,-8.638410162387044622e+00
6.193170110320864730e+00,7.654143049843208958e-03,-8.625535945424896767e+00
6.205340313340157010e+00,-2.020459930685056097e-04,-8.615793167653604812e+00
6.219480476166003413e+00,8.963008176487156226e-03,-8.610279981376839586e+00
6.223786008126729108e+00,-1.682456669253075193e-03,-8.617062395648172668e+00
6.238799206350329918e+00,-1.074344596237810159e-02,-8.601269969789871794e+00
6.261315237478028983e+00,-3.155748478055097565e-03,-8.587718338490310188e+00
6.260899604777149463e+00,1.240697811685472982e-03,-8.590762685927385789e+00
6.255748537172779677e+00,4.346869138977515860e-03,-8.580524002174113818e+00
6.278590358007838823e+00,9.405697195388529330e-03,-8.575747572857556733e+00
6.285736337042215460e+00,8.806271219601992037e-03,-8.561278574251236506e+00
6.304317090712139304e+00,-4.251323156113347504e-03,-8.563350169479283736e+00
6.306582538233765689e+00,4.692651760449308173e-04,-8.558649142047231706e+00
6.304982679349042662e+00,-4.754615984517231858e-03,-8.548669253534452395e+00
6.324791512013143269e+00,-1.238915507419657228e-03,-8.541478016128982276e+00
6.331956553194460824e+00,2.778066927872550971e-03,-8.530643692303565118e+00
6.336912043928991878e+00,6.872449814869548666e-03,-8.522936567539915131e+00
6.341879507567569796e+00,8.364555804738938328e-04,-8.525534484588837003e+00
6.356310521563276694e+00,-3.189666634722408169e-03,-8.518353516756675958e+00
6.365862240723322962e+00,3.272325192784247740e-03,-8.502816409580786328e+00
6.377569535100092502e+00,2.933334779717051890e-04,-8.505647968729034503e+00
6.389503621831239322e+00,-2.339902541639756958e-03,-8.502968957294271490e+00
6.398078117326064351e+00,3.369793845837088138e-03,-8.494430289046416505e+00
6.405146020323085665e+00,5.350813730534269633e-03,-8.489084226232867181e+00
6.408047745387593253e+00,1.112057041851003542e-02,-8.477268630197677624e+00
6.421186725977864107e+00,2.362467957475699026e-04,-8.476035239868389581e+00
6.422952395682939297e+00,-1.707814431605726192e-03,-8.467852874545577890e+00
6.448680327529218381e+00,5.184173054274236400e-03,-8.460403295556533365e+00
6.443716200746109735e+00,5.688390854298491957e-03,-8.457679410077570736e+00
6.455113495722770267e+00,1.808938479316038418e-03,-8.442208665631149245e+00
6.458483981550008579e+00,-1.421758122917436825e-03,-8.443787120275302982e+00
6.465361873339384502e+00,2.253575047724205947e-03,-8.427936908919258840e+00
6.467078018916099680e+00,4.415819987132238444e-03,-8.430782531052390283e+00
6.480968211358071329e+00,-2.904674731575183563e-03,-8.418261657902665007e+00
6.502016785766802087e+00,-5.253634568024869410e-04,-8.413220335770452252e+00
6.506637836489018056e+00,-1.147815532706491885e-02,-8.404880552641737168e+00
6.507035245649218425e+00,-4.221695935283386464e-03,-8.399975010462574332e+00
6.518725671980933001e+00,-4.850670456263196997e-03,-8.401235126299688716e+00
6.527489151529382916e+00,-4.470483724866076806e-03,-8.392571852482179295e+00
6.534165265406357115e+00,1.948365432892167287e-03,-8.392558760248872929e+00
6.535920279632301266e+00,7.427611771303551822e-04,-8.385044810211576660e+00
6.551472994948770001e+00,-5.840245128743425627e-03,-8.379244518758513394e+00
6.555398806640068798e+00,7.213145497312138318e-03,-8.374997729677801317e+00
6.565391132708807476e+00,5.395214374756708044e-03,-8.356515561439712414e+00
6.580227767949009099e+00,-1.334472393469943435e-03,-8.346167096275880937e+00
6.584246847692887705e+00,-5.259031161348402469e-03,-8.345483057792577597e+00
6.584287518937480321e+00,-5.183149962683368528e-03,-8.344504989811309059e+00
6.596406173970426501e+00,-1.006898345121494051e-02,-8.331008312381028347e+00
6.602650540585152328e+00,9.277138622304012885e-03,-8.339289974142987560e+00
6.608602349271093246e+00,4.518055074711869491e-03,-8.331074292610120224e+00
6.618243513699330727e+00,4.309312163252291064e-03,-8.320041408082760270e+00
6.627229523790793664e+00,4.525258000105637606e-03,-8.315892664992764693e+00
6.634689049428452279e+00,-4.552209768391441390e-03,-8.305289223132989562e+00
6.644151856292295655e+00,2.074511015990959228e-03,-8.299682506221380152e+00
6.642743250563243329e+00,1.250816894702226232e-03,-8.297629286906998303e+00
6.650245416454326097e+00,-6.451615696436907230e-03,-8.285658180075495594e+00
6.658530386935423984e+00,-1.881471547278016536e-03,-8.277711126439122324e+00
6.669036387389486897e+00,5.537882622979237689e-03,-8.271442232570500153e+00
6.680131026644319903e+00,-3.372406036805164920e-03,-8.287668790985669887e+00
6.685566784703126153e+00,-8.284025359896607724e-03,-8.261023801545361422e+00
6.687894225305304197e+00,-2.872673245945403867e-03,-8.262773586362863298e+00
6.692152308355176160e+00,7.531597249259382350e-03,-8.257101054603472434e+00
6.708163664991106501e+00,-2.197535705155009931e-03,-8.249638718150578143e+00
6.712466578034751663e+00,-1.195128256237666637e-04,-8.242734055793141223e+00
6.719658405676853796e+00,-7.238271655113022104e-03,-8.239773807391946647e+00
6.721842154923866275e+00,-7.251602430325233134e-03,-8.233802145710440001e+00
6.725401769932805252e+00,1.665170118779284690e-03,-8.237938368180511617e+00
6.731081965775890907e+00,-3.559365724833931256e-03,-8.224462910478360200e+00
6.733678376889098871e+00,2.190397843954141558e-03,-8.219145988361344024e+00
6.747961987268604744e+00,-1.974995784312618113e-03,-8.212954742545230502e+00
6.757993541112583102e+00,-2.635085029381970066e-03,-8.206859673053797266e+00
6.765872653205185827e+00,-5.445236167831271450e-03,-8.198860496168066447e+00
6.768679867650601700e+00,-3.752661015405789997e-06,-8.199719723519640624e+00
6.774396227386183966e+00,5.449607751632104188e-03,-8.194586981934959269e+00
6.783847352931901220e+00,-4.540198112331225548e-03,-8.186885557384171008e+00
6.779401775183654166e+00,6.271355881329698616e-03,-8.182702380682956189e+00
6.802640476591211183e+00,1.934724408901796183e-03,-8.185190753579426826e+00
6.789793248720568108e+00,-6.183096584903549110e-03,-8.166346278541166015e+00
6.807031116902619416e+00,-4.472451976491401311e-03,-8.161901075559510943e+00
6.807774791051152796e+00,-4.457275604356331598e-03,-8.161110502613858841e+00
6.826471925377131988e+00,3.449893763329545289e-03,-8.159613351389285896e+00
6.818879523349936633e+00,-3.262615722984344661e-03,-8.144227978330762951e+00
6.830209976131097704e+00,4.653078363836870082e-03,-8.145881406811492198e+00
6.847295536721669684e+00,9.616388661134649216e-04,-8.132363900067414164e+00
6.837762999029965982e+00,2.298744854532581983e-03,-8.135024418477417640e+00
6.845724436018377546e+00,-7.894049860673824082e-03,-8.134844957485347194e+00
6.858598834326199878e+00,8.063690501341621089e-03,-8.114807571780866979e+00
6.854998675172544687e+00,-2.257561768626494859e-03,-8.117256415687238658e+00
6.864781792011379835e+00,2.988539974491753910e-03,-8.108595448650181226e+00
6.878442203701088609e+00,3.142122187029513310e-04,-8.114517270729248111e+00
6.881059711146555458e+00,4.223651575074339852e-03,-8.109464336280368002e+00
6.877923555869281280e+00,-4.530104800149120647e-03,-8.104767442332407867e+00
6.892713112843124712e+00,-3.797773752457929679e-04,-8.089581455644834662e+00
6.898420953195348204e+00,3.454858910342693476e-03,-8.087173936434284727e+00
6.897217985302352972e+00,-5.814379261487631623e-03,-8.080497278726785026e+00
6.902349042773625598e+00,-4.011228690219762784e-03,-8.079352419123072337e+00
6.912111191752330797e+00,-2.949776162776632758e-03,-8.069309727756724726e+00
6.915352811760516083e+00,4.490803343914107938e-03,-8.065601071143857936e+00
6.925027339663001769e+00,-8.552358885181279759e-04,-8.064066549855128940e+00
6.935834451883572171e+00,3.653062236452886673e-03,-8.062578133950303538e+00
6.935723033826760364e+00,-4.395821639774514893e-03,-8.054691097516668563e+00
6.935623093422212726e+00,-2.119125045414345810e-03,-8.046909285604559869e+00
6.939630306765385725e+00,-8.739460069196725717e-03,-8.045948693071526492e+00
6.951682744891011900e+00,3.122760521421147611e-03,-8.037836199177110785e+00
6.963060348686020085e+00,5.274638159793149095e-03,-8.037241938855888890e+00
6.973539540930119962e+00,-3.448871357990194401e-03,-8.033982110074317617e+00
6.974942608620259499e+00,6.105566385441353085e-03,-8.021741129641840828e+00
6.980576341703021548e+00,5.086318357849556240e-04,-8.016640754573096217e+00
6.976572685025514531e+00,5.762523853778439738e-03,-8.021403739510464703e+00
6.982348187609235701e+00,-8.950246145408576048e-03,-8.014599330239654762e+00
6.988782045109383390e+00,-3.040211045241845988e-03,-8.007317906090809956e+00
6.998823006387788759e+00,1.328601073258395444e-03,-8.002062340125394968e+00
6.999014651803774356e+00,3.890686304006490525e-03,-7.990855970084521864e+00
7.010273354030491788e+00,4.061894890471789109e-03,-7.989117268336981326e+00
7.018305540972050949e+00,-1.061235617307190390e-02,-7.987297321580910214e+00
7.021335760188764041e+00,-3.093742941324373504e-03,-7.974825597555625478e+00
7.028875644083617757e+00,-2.122168403642117358e-03,-7.979851917188850230e+00
7.029561105720807390e+00,-7.237903228272397037e-03,-7.978185023115519137e+00
7.032100125413940361e+00,3.127823082987285942e-03,-7.972851103967365738e+00
7.034749907682043002e+00,-7.984370128787166010e-03,-7.961784790476423623e+00
7.036340122528315533e+00,8.941860881767156946e-03,-7.953794726107211055e+00
7.036197841746896664e+00,-6.725813120915954957e-03,-7.956246927948465775e+00
7.046612982230621824e+00,1.499885398652796645e-02,-7.949150210919770032e+00
7.063582922051651281e+00,-3.760544818344673922e-03,-7.947199897312626327e+00
7.057437333650793398e+00,9.446982313844422274e-03,-7.941127966232762070e+00
7.078241301969960375e+00,6.515345457948675803e-04,-7.940856198068217076e+00
7.070888065158741576e+00,-1.795072160599481183e-03,-7.932561419435780969e+00
7.077446644279603127e+00,-9.370979314206471155e-04,-7.923282260080799944e+00
7.078614047908636131e+00,-1.563206611485780341e-03,-7.931201273883830893e+00
7.080403621784636670e+00,2.474910311486214730e-03,-7.907127106482602308e+00
7.082147610660444847e+00,-2.201212063221722262e-03,-7.919032083453650728e+00
7.096816853182080997e+00,-4.817899158850826209e-03,-7.905023710262510050e+00
7.100248006853009386e+00,3.861543406193487099e-03,-7.914672184677619349e+00
7.095174085316751977e+00,3.045686188163295848e-03,-7.900133740490661083e+00
7.105349780970947826e+00,1.784269657702203466e-03,-7.905769860222525480e+00
7.116650179264500942e+00,2.942253800405792135e-03,-7.892442853948868908e+00
7.114702737916380748e+00,6.630862431937974491e-03,-7.887295111572276696e+00
7.114605290722586517e+00,5.689105399526266094e-03,-7.887361335160578690e+00
7.124508525896939837e+00,-8.493070115423677693e-03,-7.881064505443982071e+00
7.134620388290505488e+00,-6.429928002544012429e-03,-7.880293810504825913e+00
7.134332057436357566e+00,2.305358491130061940e-03,-7.864445226526078692e+00
7.138691472071426958e+00,-6.911853743370268040e-03,-7.866808543360131800e+00
7.139781754078451392e+00,-2.960752882943219928e-03,-7.864830109153398752e+00
7.145989636434844527e+00,-7.607774291077465389e-03,-7.860902930619276141e+00
7.150251463730287860e+00,4.313086004466917985e-03,-7.855253055981338051e+00
7.155978370558548463e+00,-3.231653967798538921e-03,-7.860543518242976369e+00
7.163075735649426790e+00,-8.763261703694076588e-03,-7.849104445102787153e+00
7.161630833454069922e+00,2.585293710753140163e-03,-7.847468517333544114e+00
7.168657589776801231e+00,7.798020387068164104e-03,-7.846342726946703650e+00
7.169765325528821620e+00,-7.745097788280161898e-03,-7.836941193295690944e+00
7.174786182405804347e+00,-2.108437224536953165e-03,-7.835341160557796059e+00
7.173462795940064751e+00,-3.552065813280254856e-03,-7.822426830820250032e+00
7.182425313947754297e+00,2.764406261713158917e-04,-7.825651230374344181e+00
7.195858314624454799e+00,6.489916724612136874e-03,-7.812499455004069837e+00
7.195948355294261134e+00,-2.329208868839117985e-03,-7.807042133459293431e+00
7.193404905390758053e+00,1.915684374260270091e-03,-7.803750100684642810e+00
7.206105060428681597e+00,-9.154563224415331480e-04,-7.812790140909337211e+00
7.202879194819463038e+00,1.379227080571777779e-03,-7.805185151771167895e+00
7.205134812461341021e+00,6.222006589843539874e-03,-7.804064271054852675e+00
7.203870542629973173e+00,-8.493098714316870551e-03,-7.799314075370213040e+00
7.215314617871031011e+00,-7.466920633300762680e-03,-7.788423632451625167e+00
7.220505264719519367e+00,2.490351034748145790e-03,-7.788791460161580638e+00
7.218303978997284709e+00,-6.681504910328265462e-03,-7.774842019076221966e+00
7.233479478982459909e+00,-5.515460062857386204e-05,-7.773973892913924821e+00
7.235531673314196333e+00,5.563103187807606938e-03,-7.783336706910765734e+00
7.238330735570729146e+00,8.517333193472323427e-03,-7.767583722074004271e+00
7.238670820381890358e+00,1.386225677239254954e-03,-7.767725266196246814e+00
7.245568418228210739e+00,-1.309101790606205691e-02,-7.762681530024842402e+00
7.260009464163556636e+00,8.917893575953541891e-04,-7.757483192707128161e+00
7.256889354951411519e+00,-4.375434593530692570e-03,-7.764565118740796024e+00
7.245916766206181414e+00,-1.092252872020481802e-03,-7.747233632166747874e+00
7.260104850759531381e+00,-1.422704828597478113e-02,-7.746204681044916995e+00
7.249361979607683359e+00,2.740839935667736121e-03,-7.747156535883546802e+00
7.265056510138426127e+00,4.001015766096381772e-03,-7.741208885774161885e+00
7.267538899168062727e+00,6.401658878730382037e-03,-7.741417084490699096e+00
7.267883549183190794e+00,-1.719096596180533145e-03,-7.746323159412136228e+00
7.268259839493930841e+00,2.159772356367003956e-03,-7.729225249251366670e+00
7.290232084003143598e+00,-8.743245596194073460e-03,-7.732307503772518409e+00
7.285381410770116695e+00,8.378284860383109975e-03,-7.720834538592892926e+00
7.293939480891787674e+00,6.998493744034706837e-03,-7.719123196913818319e+00
7.287905390700371910e+00,1.495365390079562203e-03,-7.719539815599400612e+00
7.288385828409031930e+00,-9.926001049517935160e-04,-7.709891716806353656e+00
7.299298795735042589e+00,-2.325983384760965493e-03,-7.708118136156567601e+00
7.300015164178712546e+00,-3.292559096623677833e-03,-7.708983416241681041e+00
7.297616530877527374e+00,-2.124869908241280077e-03,-7.708095578152515337e+00
7.307347544994314603e+00,1.129530073413522124e-03,-7.695896694579217545e+00
7.312835936676235882e+00,6.521993287516849105e-03,-7.698651576838742017e+00
7.312348928979359286e+00,-9.278382937312755789e-05,-7.693691475170179928e+00
7.311991878963210567e+00,-8.242814553582345763e-04,-7.689091683981281733e+00
7.314163938840143153e+00,-3.283053591682150076e-03,-7.687405653694325380e+00
7.318063081851997609e+00,-3.153913741743290971e-04,-7.681765777108643611e+00
7.316506205380373551e+00,5.095789461144819036e-04,-7.682646158593581909e+00
7.329711811970740953e+00,4.393707133699046793e-03,-7.674951055023432112e+00
7.322519420291110137e+00,9.944412142438227575e-03,-7.679805636086775245e+00
7.334225839802350322e+00,5.413261389909881233e-03,-7.674878280429142663e+00
7.340470928303792775e+00,-1.134727274751824375e-02,-7.665355375341619926e+00
7.342236344077639032e+00,-1.766627394791021920e-03,-7.664644617683673111e+00
7.339826899731116683e+00,-2.451218159711214973e-03,-7.664334000709661865e+00
7.344775408724677490e+00,1.079445753847383662e-03,-7.653618435965831246e+00
7.352550443865591312e+00,-2.371387434012027680e-03,-7.648313388922501233e+00
7.358676320185451480e+00,4.604934973154767471e-03,-7.651330002474459491e+00
7.360366497581459555e+00,4.576532825291219388e-03,-7.648886940088674535e+00
7.372110741562636349e+00,-3.708332149562748852e-03,-7.644881358379493008e+00
7.361519218248123053e+00,6.225173895721717796e-03,-7.635872107196362002e+00
7.369867580511617611e+00,1.197725577512532419e-02,-7.645513665970529615e+00
7.379708503336996905e+00,-4.728469015835648666e-03,-7.631364768151882139e+00
7.364910765870277487e+00,-3.036446438111358760e-03,-7.628130949916557491e+00
7.383702016419460890e+00,-1.082424539424548665e-02,-7.633163158001882387e+00
7.378225310804499060e+00,8.101980921264052837e-03,-7.625274042509332162e+00
7.381671818340830526e+00,8.285388071990588271e-03,-7.622837259381226360e+00
7.381241614123623229e+00,6.602509440828105251e-03,-7.624129437066120119e+00
7.385851631046042698e+00,2.629240072095772630e-03,-7.620829931111065214e+00
7.388941906531203863e+00,-7.840349883352731170e-03,-7.601516887204809336e+00
7.391295179878086152e+00,6.390329206474492166e-03,-7.599884983936716409e+00
7.403623434959203387e+00,4.200465535114953665e-03,-7.600634644732072509e+00
7.396034340114649552e+00,3.113233577794141931e-03,-7.597394775982661663e+00
7.406807820018494581e+00,2.423607785020728041e-03,-7.599577600849233505e+00
7.413877611221866282e+00,-1.459026816827925380e-03,-7.596342776637522221e+00
7.407139905896221066e+00,-1.676499136055985186e-03,-7.596527849340122707e+00
7.418646687834023368e+00,5.418225158238745712e-04,-7.592498741551917618e+00
7.410759104536863262e+00,-9.346299154634808183e-04,-7.582473030499584432e+00
7.414397426346080344e+00,1.717744379970050431e-03,-7.582241470776962977e+00
7.416378191042645618e+00,1.420898346879644449e-03,-7.586050241546932860e+00
7.422324117709464097e+00,-1.970061817576999538e-03,-7.577058970053471398e+00
7.421305694837977640e+00,9.057846876345858333e-03,-7.572895497825482103e+00
7.430445986737768571e+00,-2.746560050455659936e-03,-7.566219087260430243e+00
7.435369410378488197e+00,-7.219687631208336273e-03,-7.568566426614015796e+00
7.432050430305568334e+00,7.317813703985244500e-03,-7.566228241139477895e+00
7.436254445791711021e+00,9.455725471368267229e-03,-7.568445808194836921e+00
7.434739801358336564e+00,-1.115301588004128860e-03,-7.567444965148873770e+00
7.433796386087437646e+00,5.082943770088129906e-03,-7.559050999923583092e+00
7.442932449217345869e+00,-4.347492023224563441e-03,-7.557181585661835399e+00
7.445963172919276118e+00,1.403964107304477883e-02,-7.547996684869576534e+00
7.458958948366239738e+00,7.274396954084169122e-03,-7.548467644250664854e+00
7.449392606267644545e+00,-1.027950155888695096e-03,-7.546187400824701186e+00
7.455763783154762514e+00,1.003011977345686853e-02,-7.542308069848139951e+00
7.446358937236878361e+00,-6.232927982046924551e-04,-7.542221380861038327e+00
7.460279760585406983e+00,8.169357517579970774e-04,-7.538569952379917893e+00
7.450430847482762076e+00,9.589638842349246066e-04,-7.532431183251922846e+00
7.468930332826796636e+00,-1.186539842114384211e-03,-7.527522944862912624e+00
7.469723369290794501e+00,7.306041783098802048e-03,-7.524202777501223238e+00
7.470748301928580304e+00,1.425852636013010943e-03,-7.534049566066775228e+00
7.469868858376517373e+00,7.971615280427843744e-03,-7.520992005661404356e+00
7.470014426618508452e+00,1.654372265685164715e-03,-7.515304291287908001e+00
7.472466526232132367e+00,9.377151086012617404e-03,-7.525932257040674145e+00
7.479792684555023108e+00,3.383206420708759644e-03,-7.514932102070760678e+00
7.485033664366106620e+00,-4.535533111947465633e-03,-7.504291609000937946e+00
7.480359630557850359e+00,6.241247543874158497e-03,-7.508224393077507663e+00
7.497085563576101563e+00,-7.482656406791673119e-03,-7.509169890250847246e+00
7.492624233516405496e+00,8.859389466949620096e-03,-7.497069128646596248e+00
7.492674459748790206e+00,5.474246585548543133e-03,-7.504717078749379766e+00
7.483989117635408306e+00,-9.140734205548132520e-04,-7.496093386482595378e+00
7.497280272214104535e+00,2.207802817055076403e-03,-7.502062844189575586e+00
7.503442476693713559e+00,-3.247391630967306694e-03,-7.497539968219360418e+00
7.495526910747902782e+00,8.335470177552338489e-03,-7.491084045504829980e+00
7.499883775408370035e+00,1.348307601785710868e-03,-7.481290005025753587e+00
7.497171776614897531e+00,5.026452430189858392e-03,-7.489221901018791705e+00
7.508145808373492436e+00,-1.652843682500505958e-03,-7.486272119148170923e+00
7.505774904494531441e+00,2.963572265239343331e-03,-7.480884157550142355e+00
7.510175646735755883e+00,-1.749885143929143629e-03,-7.481287879074244529e+00
7.510547302648320489e+00,1.000149810847024076e-02,-7.476108854788202862e+00
7.509194165330502990e+00,-1.885918272853117370e-03,-7.479071508613554187e+00
7.524696615879459927e+00,4.397753826359452993e-03,-7.472763567847621857e+00
7.532851265321102829e+00,4.629765460818306136e-04,-7.468369135509109746e+00
7.521042604796375208e+00,-7.342592186566291278e-03,-7.465523584452440353e+00
7.533655983154174507e+00,2.673680461420366652e-03,-7.467649420334630861e+00
7.518990153564573120e+00,6.051145447965216098e-03,-7.461162714862457968e+00
7.527991913301166349e+00,2.234387018195305077e-03,-7.454525130639669150e+00
7.531408138434223076e+00,3.587906095660565921e-03,-7.458688870277381255e+00
7.525584456946335266e+00,4.730098179981773697e-03,-7.452063220573803548e+00
7.526718772656980860e+00,3.250238888794458191e-04,-7.454831922949184175e+00
7.533822493980205870e+00,7.279771115330568865e-03,-7.446892454226023972e+00
7.532612801600756747e+00,2.610173240593159031e-03,-7.450124178265615349e+00
7.536034897421961531e+00,-8.116382687703932106e-03,-7.437515479111520555e+00
7.546364555066531921e+00,-4.169639286529802646e-03,-7.441969654668237233e+00
7.546365641717243555e+00,-5.144918570319974467e-03,-7.434799753603743788e+00
7.552519718626618861e+00,3.901804030651385112e-03,-7.427340485887662602e+00
7.536665885552482180e+00,2.036429722050509851e-03,-7.436418666885331596e+00
7.546073148920726226e+00,1.467546190584354199e-03,-7.424801965362100908e+00
7.555045866097478857e+00,-2.416721409400596470e-03,-7.423698342099172898e+00
7.558578637196885275e+00,-3.101027293589963662e-03,-7.420327557133464147e+00
7.557415577932645512e+00,7.160505866923987627e-03,-7.432962846324604911e+00
7.565392523443760453e+00,1.389059209872798087e-02,-7.427613572226015926e+00
7.567836643278218922e+00,1.267384735854462652e-02,-7.425072388557682146e+00
7.565618532434434051e+00,8.988749066880658001e-04,-7.423050929246131524e+00
7.576632508936672394e+00,-1.465302558366855063e-03,-7.415243327018970376e+00
7.561626384685112612e+00,1.325682422021677489e-03,-7.413106698038034459e+00
