gyro_x (deg/s),gyro_y (deg/s),gyro_z (deg/s)
-1.681982797069279251e-02,-4.098860649979883808e-02,-1.396977148994251773e-02
1.180641030302986491e-02,2.546487733217252247e-02,-3.203484296673111270e-02
2.087722376268357286e-02,1.752866040588223553e-02,-9.022673023155279581e-02
5.485610276762360044e-02,-5.567249877185884849e-02,-3.266528441740593897e-02
4.003715058031474122e-02,2.613197794417408334e-02,-9.278326125788421974e-02
6.186201400434541281e-02,4.776449094954887675e-02,-4.879848114632808626e-02
-4.001312693017087391e-02,-1.102866350102170850e-01,-4.573999475403418835e-02
8.899349583823053245e-03,3.566885714407282137e-02,-4.230080868237932890e-02
4.803908006673365122e-02,-8.227380652168736182e-04,3.285622639302034076e-02
-4.594135705354651482e-03,4.298069237060208464e-02,-9.570709192016776338e-04
-1.876290365895333032e-02,-5.857052417181657887e-03,-2.336005577818620754e-02
-3.107256838997450935e-02,-1.221213533855821168e-02,1.786016090719038177e-02
-1.183824895192634591e-02,-3.752432819635968114e-02,3.089532408048283399e-02
-2.240810993557915392e-03,4.463028586849462215e-02,4.821781831143635844e-02
-7.309957993607312486e-03,-5.418395467117732150e-02,2.676452146134090590e-02
3.146504502556084215e-02,-4.568633989003428181e-02,3.272994712836288511e-02
1.106864111508709669e-02,2.653977646957768680e-02,6.370930469835034415e-02
3.628058925848528377e-02,3.972150902536043110e-02,1.229705871760861449e-02
3.807558681289005542e-02,2.548153822191352030e-02,-5.447048464699571352e-02
-2.954476677755305154e-03,-1.073963433349431687e-03,7.228430301622440490e-02
5.593986454758747423e-02,-4.933826680142218424e-02,-8.622079760969271695e-04
5.037604013323731394e-02,6.657920388980645421e-02,-3.714616630553451565e-02
5.575092728470472381e-02,-4.411388428728676286e-02,4.836110039209182143e-02
-3.425208622071169995e-02,-3.014715593411597394e-02,9.702470989700831203e-03
-1.329506468676180941e-01,-4.434608693687799863e-02,2.293104100762824796e-02
-1.682790557089099831e-02,1.272726798747629562e-01,-7.161011938483340111e-02
1.025839420309282712e-01,-2.065586105196805244e-02,8.546812159385269725e-03
8.946257709383557966e-02,-6.023622223130877668e-02,1.359018636515907028e-02
-5.868084588577596183e-02,-7.178813392125048265e-02,-6.770748777796159468e-02
6.128991364884821963e-02,-5.819380306414165260e-02,-3.584778231121191205e-02
4.629308530359034171e-05,2.275024495327576321e-02,-6.805550828854218387e-03
1.396353606113909934e-02,-3.417914786977838126e-02,2.147026613910764728e-02
-4.412551181807605749e-02,6.539607268131564233e-02,-4.279059867946299889e-02
3.202274279328217593e-02,-3.794799267936452281e-02,-6.335844681166538650e-02
3.352534071919646003e-02,-6.946079998577721348e-02,1.738614966378803500e-02
-7.600321397830879511e-03,-4.624429947456750595e-02,2.599205334100267682e-03
1.345341307789733876e-02,8.686463293381058159e-02,5.643792219488950358e-03
3.178385786152176928e-03,6.178434720028987831e-02,7.150124423247367078e-02
-5.156405009299321746e-02,-2.097632341962148150e-02,8.711294259878391011e-02
-3.652970490578779511e-02,6.019766855153281700e-03,6.993793948204803101e-02
-1.215400005701314365e-03,-4.111169705129449903e-02,-2.958928532305778181e-02
-3.824745649712261303e-02,1.783358830520632640e-02,-1.390508700118708862e-02
3.620201972835726534e-02,1.005436848463238039e-02,1.980489247625281252e-02
5.321235514927258325e-02,-7.970401795509925169e-02,4.563583499095547752e-02
-1.019316211502011363e-02,4.164532208530005719e-02,3.744154538697056639e-02
-2.449793349389598612e-02,-2.782830458193840534e-02,7.680053060427519118e-02
-2.542033103403896002e-02,2.764539639110742339e-02,2.612820556383503925e-02
-1.886422178508865080e-02,-2.161703024962860487e-02,-3.856021604570773059e-02
5.036892293505992359e-03,3.573595123559409475e-02,-1.049976779901966306e-02
5.905747308261767928e-03,-2.609629646169001754e-02,5.601262056266254064e-02
-2.128711280302688844e-02,3.509336806381197632e-02,-5.583371654932483413e-02
1.292113965650468904e-02,5.101125255363262584e-02,4.136140648526674159e-03
3.616049735876617627e-02,-5.082514390254073283e-02,4.212801573967647067e-02
3.162744327512412301e-02,7.103284824945090177e-03,-2.588531273960463508e-02
-5.924397854893039689e-02,1.647653674373383836e-02,7.201010220243038440e-02
-1.837397845605340252e-02,3.510000410292761497e-02,-4.299433923744488267e-02
7.610450069448179353e-03,9.825524078679362394e-02,-2.154482867598988410e-02
3.025271608000896020e-02,2.538652088627556258e-02,9.461805314651471760e-03
6.862000116247162981e-03,2.903909164162923884e-02,-6.007336251299810748e-02
-6.452334360471408126e-02,-2.576982666203495812e-03,-7.830346825441208969e-02
2.935091173098290998e-02,3.298377553464316297e-02,-2.592136306685094080e-02
8.791932853198654307e-02,2.051527359352569094e-02,1.037230788033415979e-01
1.917599163768971687e-02,-2.669457322382427777e-02,-3.143806471339682853e-03
9.661718879819659531e-03,4.663027330217319605e-02,-3.252992412380086712e-02
4.589194508614614226e-02,1.186512785624621244e-02,3.917310140246978850e-02
-4.319175480753244950e-02,2.405636859632195174e-02,-1.544922169063574734e-02
6.902667276031969334e-02,-5.508873870158507990e-02,-2.486554047898323350e-02
1.430393373321162467e-02,2.929561192094063543e-03,-1.174522388180449829e-02
-2.017282561697420623e-02,3.554798673007280620e-03,-3.950162021124539041e-02
1.234616810178982248e-02,-2.834370870851016938e-02,1.616407704172564269e-03
1.702871081611752324e-02,8.527909324943730440e-02,4.423860906674144389e-02
6.251974948042814118e-02,4.588982661927806794e-02,-3.780967612715875614e-02
2.284182215873217445e-02,5.917199709769275368e-02,3.372106072646212371e-02
-3.662821550049288194e-02,6.759312945345888335e-02,-7.661079198844873706e-02
-1.394845074783628187e-02,-5.302512899176007634e-03,-1.104885895900294124e-02
-1.106680456499970107e-02,3.091825541982350101e-02,3.846034027461062849e-02
-7.573887032718206683e-05,-2.658620077151754510e-02,-3.328826505069013009e-02
3.036754759725777270e-02,-1.732149639539360894e-02,-2.038373029756180427e-02
7.221396465561114031e-02,-9.673184679313214657e-03,3.237983408873773561e-02
9.570338138060586683e-03,-2.380888578045055673e-02,-4.311694415854581963e-02
-7.512041244624251268e-02,-1.450875082641713693e-02,-6.105269045183389122e-03
-2.598949329061060742e-02,9.582449570759750401e-02,-1.561520940528770933e-02
-1.069779559754211080e-02,1.088696776758156341e-02,-3.349026932151628194e-02
-5.016939550376344967e-03,-4.069580201049929208e-02,1.371493572465171942e-03
-6.196533531498928798e-02,4.079549064097928723e-02,-1.258216787760212466e-02
4.195524931966132520e-02,-2.825039682327570162e-02,5.595578887789119660e-02
7.918920038374373249e-02,2.738361055898724458e-02,-5.464587679175485907e-02
3.329935331384709096e-02,4.749580183413619483e-02,2.341439530845781242e-02
4.003996542731774050e-02,4.866293794636905590e-03,-1.499733416348715369e-02
-1.483723853215926543e-02,2.574692865922230053e-02,-3.164051810551084948e-02
-2.403078866594684712e-02,2.590662477621540061e-02,-4.818761933615954562e-02
-1.807147399350312114e-02,-3.326348743502985546e-03,-2.617240577998170004e-02
3.703163156541045692e-02,3.592001304715058269e-02,4.181886919800013869e-02
2.304044684352681699e-02,-3.249081282463951031e-02,5.314313882348270599e-04
6.482932686300872660e-02,8.070763676458440894e-02,-1.313067479187011305e-02
-4.264020280264781831e-02,-1.948446255264128096e-02,9.245954038560087740e-02
5.811691756726652947e-02,8.381119748664508234e-03,-6.834141005518558354e-02
3.066982456819404221e-02,-1.210046400912057063e-02,6.881806636993634263e-02
-2.461267346161740213e-02,-4.646142211745126621e-02,-1.343864153467693758e-02
-2.378574847133975781e-02,3.050395386339049483e-02,1.134905401338824615e-01
1.125712229727805942e-02,-3.781920997821290598e-02,-4.881424258180082874e-03
-1.440782040271042404e-03,8.310451639485526981e-03,-4.473010669396610545e-02
-7.297713918717639234e-03,-2.289255322962510317e-02,1.394188722353146594e-02
2.564972770534609120e-02,-3.700319817821807328e-02,-1.033834711283313779e-01
-1.822503093485782974e-02,2.039068224341070504e-02,2.766319027989088547e-02
-4.321769147232478597e-02,3.916895468127900258e-03,-4.253087188697646931e-02
-3.205429051811437609e-03,-8.607615281573846588e-03,1.369245234826829694e-02
7.321151650909636655e-02,2.149742285150988211e-02,-1.081982661407147363e-02
4.140009907317639820e-02,-6.876582967718128381e-02,-1.944124780902608401e-02
-4.995385272473927725e-04,2.016082322666892541e-03,7.485761584956897655e-03
-1.865402495469213606e-02,4.853368525358148222e-02,-1.116342197856623822e-02
-2.264774661893806385e-02,-2.579330264064497516e-02,2.841550295608550117e-02
-5.622933916226472567e-02,-3.258148943931649805e-02,-3.831984376292184996e-02
1.098137451284010718e-01,6.481387441227996760e-02,-4.546895395022932523e-02
5.071539262983294077e-02,1.074629030852706640e-01,-6.611100864597546298e-04
5.256606781605093620e-03,-8.007954136454774330e-02,3.596012768783894697e-02
2.031078672895437684e-02,-2.599167061457241957e-03,-3.861083198152388124e-02
1.067749881959964287e-01,3.781818141327607241e-02,-3.392893848634934845e-02
-3.215146064378150703e-04,5.648589356191130451e-02,3.893552788293964256e-02
8.231060779993708276e-02,-3.045991232769655263e-02,1.238912796293626176e-02
1.635158098647176419e-03,-3.326481409625875463e-02,1.392450923443716918e-02
-1.084647166779355125e-02,4.609809700560947576e-02,-2.747169348278483830e-02
2.922922513590175964e-02,1.872478874514645411e-02,2.872832878697158254e-02
4.971398085279202933e-02,-6.055725157440427359e-02,-2.009403877967701549e-02
1.034325427539314890e-02,3.541096047750880160e-02,-6.941153513104748873e-02
4.909791484749296414e-02,-8.522880674897159725e-02,1.817438229282948223e-02
3.981135735800939157e-02,-8.418680240639793422e-02,-2.849590822486786426e-02
-1.760475789386429027e-02,3.362996898318666023e-02,5.294448128163922046e-02
8.600724589859280733e-02,2.614101667703341500e-02,3.776061617265196596e-02
1.593076367585235381e-02,-3.959844523259841570e-02,2.945278631056964802e-02
4.096739276552745918e-02,-3.842213643578024779e-02,1.141043738728779108e-02
2.812753810732464277e-02,2.720440220630926040e-02,-1.687957134193611430e-02
-4.630799723389894540e-03,-2.815105035708802272e-03,1.313654236736898073e-01
-5.508888403252729105e-02,8.791040796411397906e-02,-5.824657450387133416e-03
6.418454121216321528e-02,-1.165302189899026196e-02,-7.517080273934721897e-03
2.565805018972879339e-02,-7.542198612209014344e-04,-2.349643503417700799e-02
8.635717970365197269e-03,8.236300210476294598e-03,-1.007479569532438168e-01
5.608657342797299106e-02,4.230216422782857866e-02,-5.778937327721627576e-02
1.788300334296984498e-02,-1.304704567786563706e-02,4.814266785629327250e-02
-6.708636069023166115e-03,4.965506210557072385e-03,2.764746010573266785e-02
-8.448580325965204807e-02,-9.771599617881305752e-03,4.313816856938739591e-02
-4.822247908879553902e-02,2.418096528917218144e-02,-1.782404516500753905e-02
5.039839202924389049e-03,-1.973949127578795634e-02,-1.902091891971654028e-02
4.401196713797985577e-02,3.900632366605530366e-02,-2.390150920928927475e-02
-7.002117539937746660e-02,9.911255311173658347e-04,-1.561251465762113384e-02
2.345653149127211942e-02,-2.945556295841154221e-02,-1.427787361416814338e-02
7.183516913886540262e-03,3.012526664733913492e-02,3.494139277169575064e-02
-4.953224549194749221e-02,-1.387008557349850985e-02,-2.313696212700076110e-02
2.888839984392968172e-02,1.223671042807909608e-02,-2.949092204164339287e-02
1.273263835584267228e-02,2.988744045807456562e-03,3.266026065386561789e-02
-1.004330473242554672e-01,3.114801967643826205e-02,2.676987348234343908e-02
-4.425978790090643461e-02,1.205484642462507222e-02,8.591411488575569078e-03
8.532518539804165997e-03,-6.734845782907550316e-02,-2.547799997658410642e-02
-4.053755944507460990e-02,3.615485541480147752e-02,-4.608718780394882586e-02
4.402974958111140202e-02,-1.082882471395067887e-02,5.319083137891278401e-02
-6.408132165818494763e-02,4.468895230905201021e-02,1.738270935017773716e-02
2.292472935611618648e-02,-1.843068760798469499e-02,-5.135287693729925079e-02
-1.374930273581513769e-02,1.483364415778992175e-02,2.114807819793661225e-02
-3.030130153595840883e-02,4.137080363354817686e-02,-5.643500299451967989e-02
-3.311707061707039323e-02,2.699376651082607825e-03,2.035230482508639666e-02
-3.244018890349942286e-02,2.874239776473470898e-02,-3.438321065353282940e-02
-5.087954333031949328e-02,9.080254305922271299e-03,-5.773230036119599007e-02
-5.439685184409644332e-03,-6.499508066304637843e-02,-4.871797387904321791e-02
-4.896238224673448575e-02,-5.691589087143082704e-02,-3.782070216830776127e-02
-1.629283652597898410e-02,5.347921916839354362e-02,2.722098730222233254e-02
8.573682828419064428e-02,-1.193253973598606271e-02,1.346148621145250995e-02
1.367231220021079309e-02,4.940543280955101563e-02,4.628712307803044962e-02
-6.519722644893612140e-02,1.061087640291340749e-02,6.497742133932997433e-02
2.298411309947421058e-02,-9.059357206048321287e-02,-1.015264169083096579e-02
-9.657722663044923314e-03,3.268103193900090409e-02,1.946831039467262700e-02
-5.713493768847500466e-03,-1.819370519796198807e-02,-5.654943651741968502e-02
-6.385961226756090015e-02,5.127238941837046482e-02,-2.333969543549029545e-03
-3.335184077457804125e-02,-1.454071084153212012e-02,-8.238345851943284365e-03
6.409010020455277457e-02,-2.438197869754432992e-03,1.723806695094225920e-03
3.902205870256834908e-02,5.067903738511694151e-02,2.906386475086755392e-02
5.001681871578104316e-02,4.255626487473636310e-02,-1.905942109339575988e-02
-5.634950408001443423e-02,6.429099009322082788e-03,1.342583698233340214e-02
-5.404259725014427633e-03,-3.758304789683573205e-02,-3.340432207018535077e-02
-4.091652278979140273e-02,5.481056397552200570e-04,-5.080883999039148731e-03
-9.024157606867817816e-02,-6.747602471301546168e-02,7.159127033269522926e-03
9.112256346098628057e-02,4.095467313468315745e-02,3.012584418968392366e-02
-2.414098902830509510e-03,-1.322188332225440743e-02,1.710138437038577486e-02
-7.510595191506810962e-04,-3.228324560229444556e-02,-3.035183941633950826e-03
5.625845835930356337e-02,-2.128967999814391707e-03,-6.509466288636871212e-02
7.004650082885663376e-02,1.275340755496261712e-02,2.071543083053671921e-02
5.218053177103960244e-03,-5.337177635785944965e-03,-1.207662970179873216e-02
-6.316922479075270935e-02,-3.289969476310321966e-02,-4.626839583609242135e-02
3.866988717929323999e-02,-1.117724775867183634e-01,2.343930559964897686e-02
1.586651794530931012e-02,4.947599812709814471e-02,7.524438550472266340e-03
-3.904925426401244671e-03,6.939792801537132856e-03,6.116352307339933958e-02
2.947428237445651536e-02,2.928217013678076699e-02,-1.132258161915048432e-02
8.722192537364730977e-03,-8.312355405957121135e-02,-1.979790004235082793e-02
1.314576360814632451e-02,5.444778024732847832e-02,8.394047252737001086e-02
-2.731671829777348320e-02,4.331998835046853985e-02,1.713690015860753688e-02
1.430501584053474155e-02,3.470794104332020763e-02,-5.218314970031900923e-02
-7.294233374081988963e-02,-1.084580524614533470e-01,1.411904484211433559e-02
6.028626824369515830e-02,-6.015312216674936763e-02,-5.195442111433826865e-02
-3.574359461246215397e-02,1.137240184491092147e-02,5.917966859012202541e-02
-1.816725897121545044e-02,-2.349922650010211750e-02,-4.562480870431757929e-02
8.523671990165933299e-02,1.462262430023324698e-02,-1.197837285293649329e-02
9.394252810492380312e-02,-3.723617414038699058e-02,1.215923232738361642e-01
6.182716775789755780e-03,-1.945639412407718094e-02,9.244948918709616770e-02
1.001371290879389878e-02,-3.841215535252825997e-02,2.009670948637857016e-02
6.054581201297731113e-02,-1.880897502501955101e-02,-2.063758596172395043e-02
1.536170776390169412e-02,-3.638196438669871052e-03,-3.536180121078774663e-02
2.067724523152002572e-02,5.555072267165738625e-02,1.697191590527170196e-02
-2.042636039383503160e-02,-6.185968827459410041e-02,-5.169126100963652298e-02
-7.230837680529457814e-03,4.725123443042169441e-02,4.186950947207466328e-02
3.791861297040555190e-02,-4.788011295931437344e-03,3.101951615627999027e-03
-1.766258877379341119e-02,5.231760584235729816e-02,-7.794907606252995079e-03
-3.158523360202518393e-02,-4.633201731210404711e-02,-5.881292833046230378e-02
-6.353936371025545315e-02,5.545825488882637211e-02,-4.404888319188750984e-02
-5.931235493961823507e-02,9.016663347162954048e-03,1.554587185299203221e-02
-2.493840735693707289e-02,2.137670306349364474e-02,-3.935108400285256686e-02
5.532379436543916756e-02,-1.020533452707180454e-02,4.648325493442650308e-02
-8.293642889458970047e-02,7.455766114932679866e-04,-3.842049991863513009e-02
3.281898451715967169e-02,-5.205422755428541076e-02,7.217662723413323378e-02
-3.399167186446252348e-02,3.250821539434891466e-02,6.465413591470679788e-02
6.562464448289261065e-02,4.160126809656817387e-02,-4.027946505275116496e-02
-1.985883915218890003e-02,2.218130405381173523e-02,-1.016591312672221331e-01
2.000589890450714566e-04,-1.091268682711774539e-02,-3.813340506283450365e-02
1.174120257667764927e-02,-5.219668234251621797e-02,6.358759307170197550e-02
1.834153654323011570e-02,-6.299147068425486884e-02,3.478690335883105611e-02
1.718165723771257827e-02,-1.540041031923126491e-03,3.540905958851972568e-02
-8.430201017262839436e-02,-7.439113444009388953e-02,-8.429067054784784505e-03
2.159277359611793540e-02,-2.533297318563923137e-02,3.748948635687446990e-02
-8.016120752792765813e-02,-7.441481560952990792e-02,7.265166329479845475e-02
-2.947791943444320537e-02,-6.957742748766264362e-02,-1.575407341154902094e-02
4.416278703956703520e-04,5.162749083899052793e-02,-1.773898637649374069e-02
-6.000203428297758851e-02,1.489465679571029891e-02,-6.633325923735891583e-02
6.283957164124391592e-02,-4.075111687774956443e-02,-7.057260679497816269e-02
-9.793210771836226985e-03,-1.895800653075389863e-02,-1.390114763082064310e-02
1.352611823096510485e-02,-3.233154341357345404e-04,9.635718493118707040e-03
-4.123678010055598087e-02,1.548798100110006758e-02,-9.039833692684291766e-02
6.824532435704892819e-02,6.418352793119233568e-02,-6.138183872114204298e-02
1.079272906713918227e-02,2.843789133607049074e-02,3.305618241561109755e-02
2.430101017877749070e-02,6.774900595530766560e-03,-7.579909139364392201e-02
4.404194345353253104e-02,1.894700446439589667e-02,-4.351559469109503482e-03
-4.480151153760435212e-02,9.663144527926002814e-02,-3.411630166512076567e-02
-1.296941227566867673e-02,-1.512770020782637156e-02,2.201354496063707023e-03
1.069618012115638658e-02,2.547300028858181728e-02,1.040068249097779104e-02
5.874465350600501651e-02,-3.621350323646584796e-02,4.710264223966331189e-03
-1.695882124948838027e-02,-3.688654939126152082e-02,-8.537862562690444468e-02
2.572491952178984978e-02,-6.163708150743271719e-02,-8.578350522091109098e-02
4.826159080460876161e-02,-3.987671346616721013e-02,2.330296811243337540e-02
-4.235261095479701116e-02,2.438938421500404241e-02,1.654400159323087330e-02
6.999752202534230416e-02,1.595351103206482310e-02,-6.393424612303580390e-02
2.268466516185150411e-02,4.865584523531089889e-02,1.207575236629205989e-01
-9.156912965373558561e-03,-3.914254901252156062e-03,-1.400639532111206190e-02
3.952202913922751859e-02,-7.804581850619623888e-03,-7.375973789997909182e-03
-2.297410043524384521e-02,3.770151292272915650e-02,-8.059412047787337108e-02
1.828778783349188121e-03,1.713948550955403730e-02,-4.504132476403440236e-03
5.858790175856837257e-02,-9.748401865311399211e-03,4.341031912678187769e-03
5.199209795619969682e-02,-2.862165500404053459e-02,5.073147447901842771e-02
-3.539872397144364080e-02,4.217927124040665547e-03,-5.656043465861960995e-02
4.288253763363302634e-02,2.543265233685725740e-02,2.239994616203825131e-02
2.478237844193543343e-02,5.075639567027535014e-03,7.211470967379218777e-02
1.410412882210926658e-02,8.654014269627155476e-02,-4.299731385242710341e-02
3.865423697329598007e-02,5.256360509277350351e-02,-1.589407179235616599e-02
2.697037147341630955e-02,-2.803508510272137780e-02,-8.480170561981319188e-02
-7.492441189297574522e-02,-3.448610297244440737e-02,6.124733467869047238e-02
-7.010631068930568525e-03,1.095302093557822855e-02,3.250758042403101289e-02
2.622631705772355062e-02,-2.941820452035862673e-03,5.958584406366110309e-03
1.052032054698099836e-02,7.988992548180441633e-02,-2.427670960995664470e-02
1.127253329907227687e-02,4.072651859882789153e-03,4.293904926579560771e-02
-8.429523166725887140e-02,1.598923790593721403e-02,-1.144659427873878123e-02
-4.727769879129924135e-02,-1.868585918647484162e-02,2.854559324574095641e-02
-3.836016940478911841e-02,-3.738017103977302885e-02,3.694080671712724265e-03
7.454419033527559524e-02,-4.067948026994751970e-02,3.902579149497957187e-03
-4.627478085588555834e-02,-6.369424449240884689e-02,1.199943566311678297e-02
6.876947142215859322e-04,2.986997213347495402e-03,2.478853305883169794e-02
3.396724136910972847e-04,5.845534161420004593e-02,-4.542780120985832892e-02
3.303477631009441029e-02,7.432077824534109867e-02,2.179554856850165687e-02
-8.553881619855772944e-02,-1.748362178867281583e-02,4.436896967633319200e-02
3.808753217859222467e-02,2.032348551325767125e-02,-7.293858119036934762e-02
-2.075211772219794776e-02,2.257496803391063206e-02,6.639016282623069233e-03
1.378830077979177789e-02,-9.430718997636708748e-04,4.463750967166840722e-02
1.283412202933930128e-03,-2.451141750358329027e-02,-2.523176278472331890e-02
-1.062311515244697933e-02,-5.791164024805358496e-02,8.918460325200229175e-03
-3.416904352025482844e-02,-4.702055474007393876e-02,2.088681525421621013e-02
3.601464860055001577e-02,2.824993669986817797e-03,-3.178525019623809622e-02
7.480063169676649804e-03,1.051229274197607380e-02,3.502361063345571512e-02
-2.115685338848949295e-03,-1.885101402905939999e-02,-8.418062855125750532e-02
5.157572584614013474e-03,-8.742495209496563627e-03,5.969488542889129362e-02
3.073374099073147847e-02,2.742709365501710614e-02,3.962287105136625201e-03
2.334770072566686241e-02,-1.021533512460612650e-02,1.581176731306356553e-02
-3.047772940981834360e-03,3.526935975145192598e-03,5.562618935859769964e-03
3.239333724489269067e-02,-8.909277259671680160e-03,-5.128858576841824335e-02
2.552451853372087603e-02,-1.866939965997284692e-02,-4.566430239829747002e-03
-8.480456710380213092e-02,5.395134189768086008e-02,-2.681316706232314811e-03
4.000515808245919125e-02,7.901904044331192756e-02,2.462281619779068103e-03
3.677886875104430936e-02,3.965487511676156485e-02,-5.697957258143683534e-02
4.250910553486834942e-02,1.100835555593675935e-02,-6.314340153364728092e-02
2.091069254885864412e-02,-3.663074820868326281e-02,3.978671601609652664e-02
1.482089021774888118e-02,-2.984866318778989572e-02,-5.575602597950076594e-02
-7.179587254022127413e-03,-6.861769693725501551e-02,1.932904926658347844e-02
-2.042802301252332267e-02,3.309984643938976984e-02,-2.267999533109571128e-02
1.306653683259191220e-02,1.610631566637622109e-02,6.813964999125303457e-02
-3.544817305680438707e-02,-5.323082666796304097e-02,1.510255315758729858e-02
7.193152371364074094e-02,1.029849538735281254e-02,6.763136113391861326e-02
-5.206537532550361419e-02,-6.928606659469456475e-02,-1.829387609965495154e-02
2.086039026706244109e-02,3.922147142019210414e-02,2.086092302677728869e-02
-7.641927727241638879e-02,4.853515941035935893e-03,2.889647851573392059e-03
-2.363790641673351595e-02,-4.025561700690653832e-02,5.516200031244236981e-03
2.906424719727744230e-02,1.572546652023429012e-02,-6.652958183632781686e-02
-7.761772506488257006e-02,-6.459161129842903512e-03,3.584280403786803404e-02
8.664975943962395510e-02,9.885965124196907650e-02,-3.183620452355452601e-02
3.550792560431681455e-02,5.935899955672717734e-03,4.123193068530602023e-02
4.472026239732863201e-02,-3.986957995112108688e-02,-3.228990182791615510e-02
2.919589057028016202e-02,3.242326811668574255e-02,5.676786074650622127e-02
-4.329308996525496611e-02,-1.130289899841838003e-01,-1.574310594347820558e-02
-2.755635194588998069e-02,-6.988889249311545926e-02,-6.022210927006441811e-02
-1.700768879941770562e-02,-7.163678153748821546e-03,9.450506554586853014e-03
2.260037910079925466e-02,3.301096804723793743e-02,-6.934648200231056936e-02
8.350845411048922473e-02,-5.209339844223774552e-02,-6.279080826454895570e-02
3.760495350949598792e-03,-2.471468494094621049e-02,-2.514596865454943667e-02
3.445555012471866047e-02,-1.715850924056985805e-02,7.377864736804065626e-02
-1.980032258454079985e-02,2.975001105940183743e-02,-2.480525331228350221e-03
2.519577573751007483e-03,3.120467970567061128e-02,3.522635934658677800e-03
-3.033215923072974871e-02,6.251350421151409022e-03,2.247667820824105628e-02
-7.502859001480514933e-02,-1.794217177080447909e-02,3.088671508099105970e-02
1.269929320406251207e-02,4.350858365010217346e-03,7.751617545225958708e-03
8.348653060212340993e-02,8.279753637989981097e-03,-4.272544060879803623e-02
5.036339838762682319e-02,-5.099536885358723487e-02,-8.871881764418729222e-02
7.009430147978796405e-03,7.750491307733278074e-03,-3.687372655731597365e-02
-3.144068647787188336e-03,3.056757647794294125e-02,-5.695994168466595071e-03
4.316906385432399233e-03,-9.917019297829284680e-03,-5.877128546557881111e-02
7.798991227149748573e-03,-1.451284596578804841e-02,1.017916295167597789e-02
7.973955666126682218e-02,1.392991515175585199e-02,2.975760202663599654e-02
-1.228964519680180931e-02,3.631027664203195088e-02,-3.639215973979823687e-02
-2.346347697648951819e-02,5.277405227580717062e-02,1.599271219104749647e-02
-4.890426363603124493e-02,2.233233637602670060e-02,3.627493502934996117e-02
1.344790615690259587e-02,-2.579853558641753350e-02,2.796423195342245815e-02
3.251964133161818794e-03,-5.163278918473963863e-02,-3.414984331419899238e-02
2.495467560765333992e-02,-4.451096758118951863e-02,1.879839605236273067e-02
5.979393478194319766e-02,-2.709145042660040387e-02,2.380153344768094412e-02
-2.996963710677558526e-03,2.672749947045320595e-02,-3.943796133896032563e-02
-7.396289224063846588e-04,3.676310557117222488e-02,3.285038112769534530e-02
-7.652074755155310708e-03,-3.815507861008585883e-02,5.182502797059927724e-02
1.481004102142353561e-03,2.760973303493493777e-02,-2.165188985051553095e-03
-3.353709252715153782e-03,9.376231868513146273e-02,6.391811081994197563e-02
3.244180427717789639e-02,5.708088385612508989e-03,-5.992417598675914281e-02
-1.268742225253438084e-02,3.947316645266704845e-03,-3.287383978332786283e-02
3.677125163668796409e-02,-1.851235652058870473e-02,-1.978187216151111594e-02
2.868521976654045055e-02,5.103537564951224348e-02,2.041251747841509034e-02
-7.361989343568313762e-03,-3.530461370017234229e-02,3.591937853734705061e-02
-2.071735012344377153e-02,-3.654054152230364495e-03,-2.059337072286506615e-02
2.824661531001120343e-02,1.304215118063170760e-02,4.280425314391530373e-02
9.052302159726745290e-02,-2.504313890333863604e-02,1.994588686351843299e-04
-3.367690100211990362e-02,5.217778691934699120e-02,9.826132995351908109e-03
4.643313428271684390e-02,-1.270182781941643461e-02,-1.787718964847314837e-02
2.578457155352644956e-02,-4.866507130923855909e-03,6.839173309054606686e-02
1.892495852828271485e-02,-1.035915715509483498e-01,3.338037824911008894e-02
3.027719287104982046e-02,-4.290033840920340694e-03,4.718442380836616878e-02
1.727092067757062498e-03,-7.169992522987042594e-02,-2.863371227634472355e-02
-5.782407604584152531e-03,-2.066961765249038241e-02,-4.070192358309889652e-02
2.064411730849318935e-02,5.090101917979671792e-02,-3.851490457769129842e-03
1.589773831055875386e-02,1.703403439227407432e-02,-1.558950827652950434e-02
3.487912222343844681e-02,7.108523246301123866e-02,2.407941810275709971e-02
6.641578209617172990e-02,6.358297795782346870e-03,-3.042588773130217722e-02
-1.741329999177143248e-02,7.354306969698673480e-02,7.022867799455366836e-03
-9.530437805413022323e-02,-2.836153688502030673e-02,-5.900776408200479606e-02
-8.992781925181339564e-03,1.420222736748664831e-02,-1.680625076449021940e-02
-4.305667139242919800e-02,1.858981367420400529e-02,3.716188651474365817e-03
-3.870739331521395182e-02,7.283338684949722253e-02,3.467718848479982297e-02
-7.175088714594731083e-03,-8.906079259692796513e-02,-2.087447530144239879e-02
-9.871570929389082705e-03,-1.536840561422415583e-02,-1.064143570650606108e-01
-1.726035808199956291e-04,-2.756331627436590416e-03,1.542002655946750171e-02
5.007026391104878009e-03,3.489226330218218441e-03,-5.168207884843425276e-02
-1.297162500471300481e-02,7.948564724603542075e-02,-2.073811168380339937e-02
1.690915606640368621e-02,4.523989172881648368e-02,5.507451125653611661e-03
-2.047309196195012948e-02,-7.702460642609932663e-03,3.123128957518891968e-02
5.331056238207895759e-02,-3.861809371469223512e-02,5.188126604531747080e-03
4.341052836889762456e-02,-4.535120417320201956e-03,3.993360122205142498e-02
7.282612467274205380e-03,1.143091425828665804e-02,3.115024029790378415e-02
-1.597282279992913792e-02,1.378597505002542717e-02,-1.680000429704254714e-02
-1.572686916486037241e-03,7.367063086175590185e-03,1.166110899001460838e-01
-2.157189039573481279e-02,-1.746800869034983994e-02,6.434192500174251705e-02
1.602968995238734581e-02,-7.701009802528196654e-03,1.938143741679539470e-02
-2.719920550690911598e-02,1.108489387047085530e-02,-1.707899825909164199e-02
4.519842065225251893e-02,2.377615026081087400e-03,-6.734179377859818294e-02
-2.701616803660153443e-02,-8.820136812078199079e-03,-8.162861235079955924e-02
-7.311863575231100643e-02,3.957375770539486165e-02,4.428126357943391184e-02
4.632393806306714379e-02,3.876804754887554910e-02,3.618115368841454647e-03
-3.100927476984981571e-02,9.382347216181358140e-02,-3.319214981833989303e-02
-4.603746919258962385e-04,-2.984592489458351774e-03,-6.066112843842016988e-02
2.203328175752946802e-02,-1.669589344864275127e-02,6.754514519851091692e-02
-8.140854155851360782e-03,7.969038458924330992e-02,-2.609028624343253527e-02
-6.031944899193924202e-03,-8.183379262997234407e-03,2.124144895589655593e-02
2.488547096061025088e-02,-6.610764911652967403e-03,1.040934182940306263e-01
7.748938880945450622e-03,4.452989203738198787e-02,-6.693069267547553658e-02
-2.312365744960960881e-02,-3.369032973044640972e-02,4.230091950814632989e-02
1.030882767617064127e-01,-3.918484085933736372e-02,-1.232097860259761223e-02
-8.375416984044054686e-03,3.199819131054514737e-02,4.248536111265738269e-02
1.668004966287717564e-02,-2.379023681183559114e-02,-1.542307281499080349e-02
1.759116685422664958e-02,-4.455068750747958120e-03,9.694010858207020506e-03
-4.842060269254886556e-02,1.473897951081075929e-02,7.801799218159320573e-04
2.014286265570197978e-02,2.325160814866166978e-02,6.384567264947084431e-02
9.901560725089654773e-04,1.296560974675385267e-02,-9.877566523920357222e-02
3.136050280288394526e-04,-6.279633807372154986e-02,1.669426679918561626e-02
-2.221573090293957678e-02,-4.277839104124067648e-02,3.951897628878145094e-03
-1.167263342660749062e-02,-3.996602823375060287e-02,6.042983460538078888e-02
-6.956237139991984508e-02,4.058674238348047858e-02,-4.714000333647318935e-02
-2.379841764991813199e-02,1.663527739487866142e-02,-4.771617971016035159e-02
6.662468942226977553e-02,-4.515474892881272961e-02,-1.294348624486378087e-02
-1.489321251851036948e-02,7.104508564598806253e-02,-1.874243446897519742e-04
2.314238876402318831e-02,-1.754898491051451806e-02,-6.139009866312162417e-02
8.685723505827717614e-03,6.519899843341273558e-03,-2.210258757703664756e-02
-2.637644869667192873e-02,-9.901775234911307233e-03,3.118011733600397489e-02
4.130286470138973265e-02,-5.189022655268143991e-02,-4.080275264738170149e-02
5.663853279979304267e-02,-1.499534386002576020e-02,-9.780669374117982595e-02
-7.184778348071968468e-02,2.700673430678390136e-02,1.995486167393909632e-02
-1.631684902650846689e-02,5.055351159704066233e-02,3.065725726524117303e-02
6.705185932157474264e-03,-1.825643892919672634e-02,1.282698188459260522e-02
6.290619953519362151e-02,-6.150853822492422657e-03,2.294417939706237808e-02
-4.155807698031387803e-02,6.581225659252593063e-03,1.840859219615700176e-02
-1.398697741529874271e-02,-1.656493760162375262e-02,-3.446086608464863678e-03
4.910928612043588548e-02,4.222024897029542922e-02,5.037676592452770136e-02
-2.437370061870099483e-02,7.880363302972424877e-02,-1.238350451044181733e-01
4.025322979734067413e-02,-2.941393273055192131e-02,5.505364625802201296e-03
5.760306365305375986e-02,1.126931331428607935e-02,-8.333398948736145742e-03
-2.173623140696535894e-02,1.136808520226899495e-02,3.973243137914942054e-03
-8.290617323640171732e-02,1.846507830156392943e-02,-2.809173522395022951e-02
1.081288882872119897e-02,6.262199116251823683e-02,6.597694006689416857e-02
7.314411462111451712e-02,-5.170618938402769815e-02,5.572415157631487558e-03
4.017211921169640959e-02,-4.767239104624073492e-02,-1.142364441643290568e-01
-2.082178016563644707e-02,5.357368874400600389e-02,-2.670571703037492861e-02
-3.703951071184206217e-02,-6.791344691857350430e-03,-2.178781390001179388e-02
-4.289870627313466939e-02,-6.419231176782181844e-03,-1.422339946502659651e-02
1.565458030129891244e-03,-1.666366395044059992e-02,-5.808497577722444849e-02
-2.008437249361265040e-02,4.996852162289552000e-03,9.142528471232606868e-02
-5.202574604120412116e-02,-2.675591970294335237e-02,6.493219951898140940e-02
8.134714500235683265e-02,-1.858568850372427014e-02,1.021393319620132051e-01
4.765169720640827222e-02,6.826416172257929356e-03,5.380411999535046619e-02
-5.821995035396779206e-02,1.288998981391129353e-02,-4.057618275078537368e-02
-1.126814410947162655e-03,4.049322988746137213e-03,3.088524647620204122e-02
-9.517346934974153100e-03,5.635764145016020597e-03,2.088999495031053019e-02
-1.637336439591616927e-02,-8.232104246652663382e-02,2.665986993018021074e-03
-1.738012177457205418e-02,-3.509060683687158927e-02,-4.621249373396256639e-03
-1.307738064127136196e-02,-6.230400734383730044e-02,6.115968842928534537e-03
-4.787897802618799707e-03,1.457894571140954179e-02,6.419843779606843048e-02
8.244871438217096782e-02,-1.877831516497588740e-02,1.054635728213773049e-01
2.623655215738977461e-02,4.319083501499320493e-02,-7.202949782906659104e-02
1.258831146570674880e-02,8.616773114989996485e-02,3.370693251879071373e-02
-3.146208361909873241e-02,-9.350369001531902424e-02,-6.509350235957334953e-04
4.868451160646202619e-02,7.073992781691527780e-03,-5.222407881304867716e-02
1.103969711746403959e-01,7.784728526273394789e-02,-2.876408025251728576e-02
-1.316631724514145084e-02,-4.468965162165266375e-02,7.759719735954080655e-02
-2.283362391275844776e-03,4.642868894941402924e-02,-3.491059327129047291e-02
1.671283884717015070e-02,8.086950884315301236e-02,3.547463093597801043e-02
9.922156566597135213e-03,-6.041370086247770110e-03,3.597341526455236776e-02
1.377010054073533191e-02,-3.544988185293486416e-02,2.256539175348828627e-02
3.478268652911632036e-02,-6.853892422283588970e-02,4.322964083826059262e-02
3.473695505284147417e-02,-4.386426322967433566e-02,-1.054995399461825661e-02
-2.841197240159516746e-02,7.029869817913129981e-02,-3.988219259571020026e-02
-6.408644393410886653e-02,-4.607679879816491825e-02,-5.386623277876215893e-02
-3.713105268904894757e-02,4.260329722085194615e-02,-7.187676835590236374e-03
-5.821611997772996143e-03,1.593237119726865353e-02,3.989490322293065550e-02
-4.720233423631362002e-02,4.143990663954997926e-03,-2.279825479394990626e-02
1.496117683007729300e-02,-1.210619248041516077e-02,-2.833460273758780373e-02
-7.597594660411480759e-03,1.570134567082005425e-02,-3.080121430762668144e-02
-2.454458643813803992e-02,3.268751441444984335e-02,-3.887392878482968245e-02
4.528408966536493635e-02,1.390688224322581164e-02,-6.722032908104290383e-02
7.033490749048050550e-02,5.760567586783744282e-02,-4.936190590953367860e-03
-4.345270987713738958e-02,-5.232557125207108056e-02,3.367754366774447505e-02
1.304270170214642116e-02,9.360509391687747704e-03,-3.989850833804089308e-02
5.809858361597380894e-02,-6.190814945160468680e-02,3.187953026037152610e-02
-4.895670185501283661e-02,-3.406888673016895963e-02,-3.168111327621134232e-02
1.164832444076608318e-02,8.541687923532548243e-02,-1.077918149480294914e-02
6.388167237479254468e-02,3.528706826126300211e-02,-5.636100990057118371e-02
5.628977046580348892e-02,-7.397518379543427391e-02,4.476473960657700001e-03
1.235379182133995550e-02,3.425591290282091472e-02,3.173207275159729140e-02
2.674804219642507985e-03,6.200501242772761719e-03,-4.243261382824797812e-02
7.482457436363670542e-03,-4.627223876054017970e-02,-5.267711968282471485e-02
3.286639610411527801e-02,-2.365066101762634126e-02,-4.326638078696805334e-02
3.815115367758082493e-02,6.643956101713353879e-02,-7.627397553719919565e-02
-1.054925281289244982e-02,-3.809390624683779702e-04,-1.573046349242612774e-02
-2.206354145423763610e-02,-2.523969916441677966e-02,-2.353913593357199671e-02
1.186894559426475773e-02,5.601805538410065122e-02,3.249110947052042536e-02
9.202907991908776397e-02,-2.760884554735359639e-02,-5.756971424288113981e-02
-9.518568240671002045e-02,4.419628443241444687e-02,-5.083045495987693896e-02
-1.270358782164014363e-02,-5.985327877523062556e-02,-3.046497528583360856e-02
-3.033954575212563162e-02,-1.906106961267546585e-02,-2.452212367577214988e-02
3.080404376920525822e-02,2.881321377007935169e-02,5.371054444611166739e-02
-2.006355335082853422e-02,-4.554923680726859908e-02,1.281816311462340152e-01
-3.885817702096491365e-03,3.428715871450963015e-02,5.389905882817389027e-02
-8.494520724302495607e-02,-5.148582486782494159e-03,-5.883461503391517605e-02
3.560098744690858713e-02,-1.399726215619334982e-02,-4.812371544286637645e-03
-8.537418900965201493e-03,-4.797602555207786112e-02,-1.137158766461492526e-01
1.174608761306030272e-02,-8.054915507791544221e-03,-2.309594362900673631e-02
4.242747446600265981e-02,-3.894709775240393079e-02,2.669910672318415862e-02
3.799323962085040824e-03,-8.632568191694339754e-02,-9.157987686617252709e-02
-5.149925996207539713e-02,3.211275543582545883e-02,1.694683531979217228e-02
-3.701262356305893425e-02,8.953022214932482769e-04,-3.626079219128576503e-02
3.521243665118051897e-02,6.342121447707856942e-03,2.566489038703710993e-02
-3.199596781715137450e-02,4.089632477619713907e-02,-2.958419475276171870e-02
2.382565530032603948e-02,5.857502702898862920e-03,-5.463248013695014282e-02
-1.108188865863821669e-02,-3.516349493655759884e-02,-9.428387866648467452e-02
-4.249029830019356718e-02,2.274689953428344399e-03,-2.995832523014061929e-02
-1.861113399022322132e-02,-4.058909955906220279e-02,1.935542278629153942e-02
6.150723056771512098e-02,1.961832367499492455e-02,-3.823378514292953816e-03
4.778997901675282461e-02,-6.553941839217192894e-03,-8.626696358642869933e-02
3.288798055316426161e-02,7.143362120710229635e-02,1.798959876220494400e-02
-3.011026087507528287e-02,-1.883047435488332784e-03,4.711194369735804618e-03
5.211730073507793437e-02,-1.450964051060132411e-02,1.435380137634723399e-02
1.018648558140509107e-02,-4.072762143816605757e-02,-3.797164819327120827e-02
6.774383214684620569e-02,-1.319044748914588623e-02,-2.956415696165575271e-02
2.006054187791246265e-03,2.831337290341941204e-03,2.789489882126670178e-02
-7.183664536442804782e-02,-2.499021668652310485e-02,1.892686755143569571e-02
-6.009824077354318506e-02,-9.954594290245613597e-02,1.989036540631934288e-02
-1.404192955437110141e-03,-1.779592618606950713e-02,1.737459481509292386e-02
4.976845283996169517e-02,4.699183989363311248e-02,3.651113492228529045e-02
9.274737794313649489e-03,-4.706633306140490386e-02,-1.726628006575412974e-02
3.084182235188493229e-03,2.605811738200995015e-02,-4.326070457996071539e-02
-4.482120971495003742e-02,2.871845859629291661e-02,1.425689845268585283e-02
1.097744023707563580e-03,-4.127671722258178383e-02,-4.847292454913160881e-02
2.043346628268461959e-02,1.051421647970648618e-02,-1.893634190265853709e-02
-2.662198086042045619e-03,-5.639112757657310099e-02,-4.406897289546304886e-02
1.257015389146715284e-03,3.386434534880947145e-02,1.366044388033007227e-02
-1.888434375138898363e-02,5.033581958767682774e-02,2.921864849937308786e-02
-3.160115178214074894e-02,-2.962296345502134567e-02,5.516224519699244183e-02
-2.842418642491926703e-02,2.368548573428215769e-03,-2.028399754338683705e-02
1.890047729364572595e-03,6.456690681346155015e-03,-5.747770918029867365e-02
-3.424937442722034847e-02,-4.396669947247118515e-02,4.935769674722602016e-03
-2.455843821627031603e-02,-2.835270465383332369e-02,2.555333380299409235e-02
-3.363211175822870824e-02,7.188784544040277558e-02,5.790240751424505228e-02
-1.417591023380747805e-03,4.134026083462765538e-02,5.903357437304459360e-02
3.511678307594967574e-02,-1.301972087188159877e-01,-7.290581055860269333e-02
2.063386540934165903e-02,6.619619613006803849e-02,-2.928062847873034308e-02
-2.710026628104879320e-02,-1.764613548351200503e-02,3.916764767406177156e-02
1.839899408503841566e-02,-3.267450183824513466e-02,-5.806703204818911002e-02
4.733484715506462021e-02,1.134218473304931564e-02,-4.062176572198902130e-02
5.912991734834140839e-03,4.447758360710139282e-03,9.946534985819408675e-03
8.742531647553304641e-02,4.637845971165186626e-02,4.236441365954747920e-03
4.031728853682384900e-02,4.547717694893003981e-02,2.059604749821376118e-02
5.833999001864099976e-02,1.692293964598817757e-02,2.568283480913015338e-02
-1.066936940823639580e-02,-3.396382498336888989e-02,-2.402373285366720540e-02
-5.054320920933681738e-02,-7.069768058776081110e-02,-5.921493773743734257e-02
2.890333127932739193e-02,6.321387370058018096e-02,1.641483238214969109e-02
6.203964444974325448e-02,1.036922768951229340e-01,8.120735992499125699e-02
4.379247924301755968e-02,-3.834605740095661797e-02,-5.963915696089901880e-02
3.472035909750773031e-02,-6.864710972143582210e-03,-7.776733702963889439e-02
2.010969522252855149e-02,-5.204247853265058822e-03,2.788623876348596958e-02
9.402921628867716430e-03,-2.337543025601528362e-03,6.783149846368971558e-02
-4.019296992656776896e-02,-2.327589716093942523e-02,-1.681633532915940976e-02
4.686544379987781644e-02,-1.888388735347291264e-02,3.437648181919787660e-02
-1.707080134282165998e-02,-4.956615274603179411e-02,-3.826638319468807573e-03
4.418640216048190517e-02,2.810565823765155680e-02,1.554126607962571203e-02
-2.405434986113213353e-02,-3.815733147590862767e-02,9.094149572344872867e-02
-4.213103991462512077e-02,4.088876272859380892e-03,1.532178859829461635e-02
6.600783268646301383e-02,1.357589839757540086e-02,1.359464796628830942e-02
-1.301194590549195271e-02,1.573329927759862731e-02,-2.165377464091586615e-02
-2.066257175448200575e-02,1.102644072643309964e-01,1.620742502532443105e-02
2.251842445863903516e-02,8.594937324146227631e-02,5.386843804791170004e-02
-4.379529122115289469e-02,2.846942694747107636e-02,-2.536967221339981801e-02
5.097263810385860294e-02,3.205562954915231605e-02,5.322533867463135997e-03
5.327662385586467986e-02,-1.440218224023047909e-02,-4.597198459514745955e-03
-6.973041037511197582e-02,-8.891165005195256904e-03,-9.834445595075852128e-03
4.836940667882830974e-02,-2.267517475137668589e-02,-1.922724787911533201e-02
3.198860745971054964e-02,7.166139582389913221e-02,3.205424189612136182e-02
-3.023314020299567792e-02,1.126485072475632686e-03,-3.541413138024152962e-04
-4.242405216888644331e-02,5.168613895156695150e-03,1.242414567669199860e-02
3.311367441875841255e-02,1.851950003742602532e-02,-2.046238885558368525e-02
-2.601777480049497285e-02,-9.373607262299467335e-02,8.368344164780082417e-02
4.693297130124651079e-02,-2.804448353428254381e-02,1.777969505586414131e-02
-8.440508930769910489e-02,-1.847515664469426278e-02,1.724469829209433758e-02
4.433469002687616400e-02,6.141866263992913633e-02,-3.055943338419455507e-02
-3.983894963220734747e-02,5.526623349970960497e-02,-2.960234756376691617e-02
-4.623057573902739775e-02,-2.630795072055547995e-02,-6.158324579635402612e-02
-1.017431255879663876e-01,-9.484327694417715032e-03,-3.390736475254500781e-02
-6.693081438291215157e-02,-4.356546976713141124e-04,3.593119403877002849e-02
5.779825710833172425e-02,-2.393846543547081471e-02,-1.322547795753491011e-02
3.707849990411297980e-02,-1.079440868948072091e-01,6.181058106706246308e-02
-6.441655522407900916e-03,1.521923148262602742e-02,4.129007404800145303e-03
-1.683223044546376668e-02,2.641293486900835475e-03,-1.000830356717827795e-02
-6.946339542617398222e-03,5.974014193707145870e-02,9.182750182972262282e-03
-7.761063163313745850e-02,7.413345640946807091e-02,1.887917091396764313e-03
-2.726557269383741294e-02,-2.283755760156043133e-02,9.558528403030744358e-03
7.458023892409706979e-02,-1.973780312736043638e-02,-1.632843269395423472e-02
2.117824742096441684e-02,-5.385854077194707212e-02,1.302274008593917384e-02
-2.214752113476935180e-02,3.556763714770579121e-02,-5.544859784117187051e-03
-9.059785708874661114e-02,-5.402394319908365022e-02,-4.749952173834607466e-02
3.234995619278906165e-02,3.299485388494195065e-02,-1.180719572615775105e-03
7.249400072501231175e-03,-4.821781331770990048e-04,1.863831742280477877e-02
4.085659128449150787e-03,2.383757038133428510e-03,-4.058129213816567132e-02
-5.538477380125695661e-03,-3.489558580295528539e-02,1.987314840419880657e-02
-2.997352242213771265e-02,-1.130929473115783665e-02,-5.914860870353004507e-02
-1.339040438395141912e-02,-5.253079004698951032e-02,6.721748771671870980e-03
-3.321571743148417095e-03,1.219411325149744735e-02,-5.318993623641616458e-02
5.635418270166026034e-02,-2.083944222198753915e-02,4.769943718387967269e-02
4.713181665073001847e-02,3.238475818224372665e-02,-4.544510504477188712e-02
-2.933345264788740289e-02,-5.844985811593067515e-02,2.991229826937022787e-02
4.960158917494573300e-02,-1.489185263342077646e-02,3.508553725623769076e-02
-6.126853107784912406e-02,-1.560650979307255486e-02,3.633146516467313653e-02
7.982640232605505218e-03,-3.850593975215788750e-02,-4.129816650123032534e-02
-5.316968227300403887e-02,8.775847283548658673e-02,-6.789727876893277003e-02
3.589002215934591206e-02,3.629713904961163855e-03,2.876955650648749252e-02
-5.365603956373424938e-02,3.715188697844817867e-02,-9.120809617361317137e-03
9.078092088553323807e-03,3.337389342226844413e-02,-4.909372021124412677e-02
-9.313462370575254293e-03,4.357836472834604458e-02,-1.701086525135063823e-02
3.543951602954908964e-02,-1.634964032274621032e-02,1.834112538688637342e-02
-7.878234016814349844e-03,4.341513665247180576e-02,-2.657621324672612348e-02
-2.707954834164852474e-03,1.282110848292901915e-02,2.605369941368288617e-02
1.230949816453215558e-02,3.161493408654330456e-03,1.628877858822560740e-02
-1.410133233565468444e-03,-1.587878390016785046e-02,8.741005129863430034e-02
-8.217402600249166730e-03,-3.258025518073781601e-02,-3.790366828184509127e-03
-3.301297008282451373e-02,-6.739758163813447389e-02,-4.372756244492200656e-02
-3.042353805080089471e-02,4.598232725346194406e-03,4.582250252699882065e-02
1.562702930552285416e-02,2.091840889074197268e-02,-3.809026874462808666e-03
-3.580669870964087870e-02,-3.899502885880035130e-02,2.193165921844384553e-02
-5.756155202692440215e-02,-6.437956541716845227e-02,-2.714701538497438574e-02
1.065522842414303069e-02,-4.426147689256266365e-02,3.831348908151655658e-02
-1.028355744737442269e-02,4.719208765931678234e-02,-1.707326086542839891e-02
-2.176729964889487917e-02,1.159592485022690675e-02,-2.049215737565202380e-02
4.015909231849675715e-02,-2.132540861278118052e-02,2.563874036840791543e-02
2.982849971952816759e-02,6.580071088027576731e-02,4.544015584154488530e-02
1.950573424365660558e-02,3.381330455919286798e-03,-1.774851676722604896e-02
-9.560446780186687699e-02,-6.217495734775618788e-02,-5.265298650721450535e-02
-1.317814461164493710e-02,-5.693054379517178964e-02,6.781338816577738016e-02
-8.151227094942682661e-03,5.180605232755809697e-02,1.592296844397976877e-02
-1.474378170685299722e-02,7.191228876029266692e-02,4.394947521669372720e-02
-3.463878629077993959e-02,1.567852229994384783e-02,5.733727465627286995e-02
9.957059069428529641e-03,2.128904800606060133e-02,-1.300027778654603838e-01
-5.917771214118512646e-02,-2.233550258164130817e-02,4.288330632034753620e-02
-8.351640545287573880e-02,3.544483315388367861e-02,1.830483216451598075e-02
7.542137780119205102e-04,2.040724214916597376e-02,3.424956485834441521e-03
1.307423001778123574e-02,-9.598565770757320689e-03,1.939076935118756728e-02
3.781988704846485361e-02,6.302297335311016213e-02,-1.768382802555874128e-02
-5.186004988949933364e-02,-3.260040712179597400e-02,-6.959571012215243213e-02
5.068018488625061768e-02,3.934294531413915635e-02,-8.855111901444334688e-03
-2.041734920007856613e-02,-3.424078990818856666e-02,3.656238780411590061e-02
-9.506380050538096316e-02,-1.580240160083241571e-02,-3.245180029187770543e-03
-8.803477036101521602e-02,8.227166003656256887e-03,4.211761737907948459e-04
-7.182194180626726154e-02,-1.091408724506262445e-01,-6.910554328823918790e-02
1.709311699027929541e-03,7.553889178085897160e-02,3.460899412652744794e-03
6.341044251557968747e-02,1.689161850444674193e-02,-2.618584125928845666e-03
-8.739616923724552108e-03,4.875746944489248169e-02,4.957573670248238695e-02
1.684321823497580278e-02,5.523015929420879017e-02,5.216249318032217808e-02
-8.028955902662876509e-02,-1.611980060479623750e-02,4.923216010146453520e-02
1.488326766726503179e-02,-4.305243383709161063e-03,4.452657302708771733e-03
1.383539378838291936e-02,-6.289507926170088276e-03,-7.118232523677207012e-03
1.215837886359405311e-02,4.442398398782922662e-03,1.983970466832656737e-02
2.352073466591020692e-02,7.313731993382898908e-03,-2.432159984804079661e-02
1.441268739966219611e-02,1.003588777075625944e-02,2.033209837835179418e-02
-5.811159998582367953e-02,-3.855102382765353709e-04,7.036494013540784721e-03
5.466406255420413161e-03,-8.649911290030863620e-03,5.908373525769994999e-02
2.420894709016080393e-02,8.995629355870581045e-02,8.652404791019233099e-02
1.051241511236753259e-02,-3.196027023177581972e-02,-3.963549410923503796e-02
4.020640674008206517e-02,6.801231666693739741e-02,1.322363055145191722e-02
-3.184987293153923593e-02,4.170758102876265250e-02,2.131889789979862088e-02
-7.445251967046018216e-02,4.856073680848266988e-02,7.531683028469297880e-02
3.707446232255048185e-02,-2.299280125697812649e-02,1.380020227625192858e-02
-2.657684495536798142e-02,1.017105082945218147e-01,-2.240064999019186764e-02
-4.588634055592399896e-02,-2.247400268375236015e-02,-4.373069092595733426e-02
4.396554892086942251e-02,-1.112202471423240704e-02,4.336883024723090473e-03
-4.666867224471435427e-02,3.176668461707092810e-03,2.858751962075535558e-02
3.427193972544880646e-02,-5.686837033441799472e-02,2.368133929590966746e-02
-1.214392434282628337e-02,-5.162853147045000368e-02,6.089586706685908707e-02
-2.610244037959496416e-02,5.411476758686073474e-02,-7.406205918464038584e-02
8.417441354643125095e-03,1.017015895765021327e-01,5.962822888859363284e-03
5.496980649433151622e-03,2.295296296198908945e-02,1.815310558653197154e-02
9.837933608626302229e-02,2.384218131718712774e-03,2.131446740847305066e-02
-1.340036161849111028e-02,-1.711762865401863370e-02,5.791592290663742648e-02
2.815711927799345940e-02,2.697001890697935111e-02,-1.117056253405802890e-02
5.417253278003937578e-02,-1.086879562803439239e-02,-1.838993654250995619e-02
-2.694989548696670456e-02,-1.953826770157984782e-02,-4.851066794881152278e-02
1.455014583151214083e-03,2.685557570126346355e-02,4.700665430515314769e-02
3.083922009518728913e-02,2.794421900623223973e-02,5.398952298041709286e-02
-3.722310256059563338e-02,2.303896907433019073e-02,-3.791356665988693947e-02
-2.964961278271065551e-02,-2.565661736682726263e-02,-3.944739408868218333e-02
8.805484861048668010e-02,-4.838616403756892254e-02,4.298047955334171472e-02
3.988133851040699673e-02,-2.212112996267465853e-02,-2.244569345191035903e-02
-3.900145691060514196e-03,-9.392677450552744736e-03,9.957869870540444687e-03
4.403469474177133108e-02,5.259309987122372763e-03,-1.607235357469000495e-02
-5.417295363983524320e-02,-6.445675099494881620e-03,1.967095158725324158e-02
-4.880707469929956681e-03,-6.151602024703083788e-02,-3.024132004754534128e-03
1.412637901207296036e-02,2.722405419565187071e-02,-1.384617425608933826e-02
-2.390219452481725723e-02,-1.421412136506511048e-01,-3.073270807320824249e-02
-1.188965241011980672e-02,1.160634790316842913e-01,3.822563151547225813e-02
-2.592597607503322257e-02,-6.971558707902517082e-02,3.091765236020901832e-03
-2.521696138784025598e-02,6.342466931919802341e-03,4.053414335458641743e-03
-2.498296499100458035e-02,-3.352218664017368038e-02,4.901510321816516386e-02
-8.512357971728529149e-02,-1.479033443722030730e-02,-4.476604987612039371e-02
2.580312086936812493e-02,-2.956338788008664592e-02,-3.428906442506055030e-02
9.650871144097092433e-04,3.690579220734796495e-02,-7.330059117153732429e-02
-1.082681498204419480e-02,-5.518975728855700369e-02,-2.635772700220266260e-02
-5.912478108347005157e-02,1.026165752238814531e-02,-3.306182911897127819e-02
-6.402104755287886528e-02,1.701888055612359174e-02,-4.155874050031244105e-02
6.851142935400114653e-02,2.643127934812573160e-02,-2.736957514931880400e-02
-1.987710286975032797e-02,-5.527349594321390169e-02,-1.325410285915885542e-02
4.428999388832262352e-02,6.622047354483080739e-02,1.395272399699944502e-02
2.875041162980950663e-05,-7.752727535489015165e-02,-4.483976256216067741e-02
1.545223881684820721e-02,-5.542637960964810762e-02,-9.914940126859654417e-04
1.625721574979052675e-02,7.228754972904519183e-02,-4.855150883808698192e-02
4.740550525670794713e-02,6.333325943438380956e-02,-4.567546227765374722e-02
2.754566525136653565e-02,3.518620919376643039e-03,8.724211513597980279e-04
5.468872068036798907e-04,-4.636374125872249653e-03,-8.761160881375650022e-02
5.946068184735486123e-03,-8.126868516992891145e-02,-7.850440850602118451e-03
6.908939554093033834e-03,2.834789761811931652e-02,6.756210973423619481e-02
-2.917636480251498826e-02,2.981971696087982321e-02,-4.326036013335951558e-02
1.260342065762502448e-03,1.008002305687393102e-01,2.021857317053006239e-02
2.823465854920542695e-02,2.559982929484536443e-02,2.035412934808751573e-02
1.799679016737280174e-03,-1.235921534111660697e-02,8.409231510303005752e-02
2.640837270606166340e-02,-8.251861253172718125e-03,2.283308695085159434e-02
1.708824168106421945e-02,2.161665248754730470e-02,-3.134343183364308311e-02
3.021326864165876577e-02,-4.694176257399351737e-02,-4.084794850358574453e-03
-2.051249251397310389e-02,-4.063655609514073286e-02,-1.078349544675298718e-03
8.385738223941830577e-03,6.658449644499504771e-02,4.043343100109152155e-02
2.187205975260576862e-02,1.146846998993171799e-03,-2.976462333409349639e-02
-1.001155600737969713e-02,4.714967399649218349e-02,-9.838282417644557409e-02
-2.907725548890664410e-02,-4.833343233660103780e-03,-9.361330500691588188e-03
-9.859600212194374533e-03,5.880838324272997381e-02,1.093571173535222603e-02
8.337430244309015567e-03,-3.373771754530371578e-03,-3.424384239815603942e-02
2.849605111461681051e-02,-1.651610784917939903e-02,3.450390523736911706e-03
-3.521894342411692122e-03,1.062693893921541274e-02,-7.254390929055475057e-02
-3.305526701962124836e-02,-3.600791416480519230e-02,9.092300654163407159e-02
8.485570844229446338e-03,-6.147541039650931266e-02,-3.330136011758923903e-02
6.564109128688937200e-02,-3.133449457714855557e-02,-3.650705820495409731e-02
1.069960234620402455e-02,3.128642199068337043e-02,-7.990981675046067434e-02
-5.515375938764841696e-02,-7.067697297819154276e-03,-2.495102838021064431e-02
3.871596520409361503e-02,-6.327643397834298300e-02,2.415214987835484148e-02
-7.001232919294254897e-02,2.545627667068923322e-02,-5.101004411752642353e-02
-3.971601374339528423e-02,-4.961588360437794998e-02,6.089448780958753304e-02
-1.671613921169502748e-02,4.441071805162550429e-02,9.220819428568595433e-03
3.980664071680752730e-02,-3.731363045701390629e-02,8.847411647128242823e-03
2.000256371779884565e-02,-6.492524913596431357e-02,-1.030501540949763963e-02
-1.647209303387637408e-02,3.504690592827971324e-02,-2.642801589593264319e-02
4.201342422397054410e-02,-3.865853419577047062e-02,5.574040641561968379e-02
-5.589506690538803557e-02,-7.586965849465515666e-02,-4.114532136167776966e-02
-1.877948945366122308e-02,3.660048464980641958e-02,-7.137592853857036013e-02
4.542525772060354572e-02,6.887704596009144864e-02,2.406474059832765591e-02
-6.949182877658045127e-03,4.687227635143874534e-03,6.198993395630678256e-03
-2.762640368016478984e-02,6.921240449156322583e-02,1.422731314575696911e-02
8.615452746958025820e-03,-2.951270409465385491e-02,-6.189146460886348067e-02
-1.561871180369904175e-02,3.235004129096854392e-02,-3.261879829220473703e-02
1.286713491363119036e-02,2.202910408176890489e-02,5.312945499181467857e-02
9.563812359844129848e-03,-6.275195335687532017e-02,1.001937696298088772e-02
3.023574071760576701e-02,5.698336747556084336e-04,2.046802376507076901e-02
4.241299416517444604e-02,-5.373205433297766759e-02,-7.549732132121439628e-03
4.859274314873868184e-02,-2.782137775483618444e-02,3.895638689155529050e-02
-2.757064814644618125e-02,-5.709938906661457536e-02,-5.281826447419304960e-02
3.522727806472609330e-02,-1.552983030392690589e-02,3.080513482498697247e-03
-3.705626550668594116e-02,-6.134099061853856560e-02,3.072014065129668320e-02
4.360964513404394505e-02,4.606894163827016109e-02,-8.407613127380639435e-04
6.624495251665482934e-03,-2.206526027153278904e-02,5.312325656760333303e-02
-3.129868301245451040e-02,-1.186937061092652006e-02,-8.640470478906393803e-02
1.458327450889199822e-02,3.078365995370450567e-02,-2.158144746968757716e-02
-4.086509809035823032e-02,-3.980027865067316262e-02,3.736055960933154507e-02
1.267148214921118114e-02,1.346175553242200985e-02,-2.829486531822815801e-03
-7.536506673129522715e-02,-6.896321784839756774e-02,-2.309163512184391961e-02
-1.122488919821318029e-02,-3.815181742529036302e-02,-2.464685971512749207e-02
-2.715703099717207622e-02,-5.459556953596925166e-02,7.746562200341636749e-03
-4.485772523487231017e-02,9.871881334318653722e-02,-5.506941564765548830e-02
2.569839454927133268e-02,-3.463164550292511384e-02,-4.180443528503184625e-03
-2.471805872004753310e-02,-3.180496260042402906e-02,7.481593595130929530e-02
4.742625376510578583e-02,-1.753887557121588947e-02,-4.550978722921896619e-02
2.773447639035183168e-02,6.114118398177133262e-02,8.452151974457471073e-02
2.753979715617875870e-02,2.897010617640611088e-02,-2.239370124203051218e-02
8.118126906009476285e-02,2.053263393892957797e-02,7.537108532358952756e-03
3.897818549682954131e-02,-8.161375948068974595e-02,8.750649808692076079e-03
-3.970962516866876485e-02,-7.103854281870224108e-02,3.364920123225159654e-02
3.444559608502974907e-02,-4.346593237739099919e-02,3.128570912221918798e-02
2.210273314432034328e-02,1.238458593729256305e-02,1.064652980024153456e-02
-3.451569406240593413e-02,5.160362878504604761e-02,4.948432397449262742e-03
3.973184671210593794e-02,-2.400683331592775097e-02,-2.003082365553666977e-03
3.744828955042759505e-02,4.186592492893201345e-02,-2.535293067054802604e-02
9.343401890058686265e-02,4.848116560907056449e-02,1.025916894862154150e-02
-5.873527097991669554e-02,2.468907427304616389e-02,3.102803745118555209e-02
1.479586549896686754e-01,1.932899850980515991e-02,-2.324485067555416389e-03
3.493586474340439757e-02,-9.243886537753023824e-02,6.520067176509181453e-03
3.448477266598192620e-02,1.994456633726971947e-02,-4.524946800798616831e-02
1.336461533655320874e-02,-2.165763736923956642e-02,3.334788371751141317e-02
5.833997657199183062e-02,2.722309078349690464e-02,1.615961343717646839e-02
4.557311115216244879e-02,4.314556610663118630e-02,-7.428147340234694807e-02
2.461567235765905678e-02,4.537388369848715380e-02,-2.092465127685764342e-02
-4.064856695634698654e-03,3.286683820051695265e-02,2.718379115586096184e-02
-7.562295139608125882e-02,4.916980880412928634e-02,5.256903399901763883e-03
-2.281765303871035808e-03,-1.768466120551736784e-02,3.951608240822322010e-02
-5.755626413833701827e-02,8.502506127416277482e-02,-3.292864033215309183e-02
-3.181431760078799048e-02,4.814334055603896462e-02,-2.975334639121427621e-02
-2.443743786942261312e-02,2.651059853875320851e-02,6.546755357831085531e-02
-2.656922300434968326e-02,1.658657034006254596e-02,1.819168916520720256e-02
6.683171417625845268e-03,3.526794876647541647e-03,1.196145937749026715e-02
-8.072750475528439607e-02,-1.894763231288000213e-02,2.795883621932812590e-02
1.326526121544173258e-02,-2.912661980924421967e-02,-3.394806781785994487e-02
-4.681353715889825795e-02,-1.560433837492170538e-02,-3.630973503502704647e-02
4.528984748386667529e-03,-2.678673284216644829e-02,-5.796853358365498983e-04
3.015730591556848444e-02,-1.411604447647487985e-02,-3.194085442453176854e-02
5.021669282965096626e-02,5.922761983835947951e-03,1.542835021890205140e-03
-3.411925976165076403e-03,-1.775717156042896927e-03,1.719412261470678813e-02
-1.394495158646666573e-02,-7.090258950743223189e-03,6.123623664781887438e-02
2.073198628581504957e-02,-8.930863868836177999e-02,-6.596647281578274513e-02
-1.126657052755577993e-03,5.434902665562370283e-02,-5.277375723810079529e-03
1.764485739355861962e-02,-1.898407094119596017e-02,2.602252120508562888e-02
7.995411192750806473e-02,-4.327285845663845359e-02,9.535856258743874306e-04
-6.298534011738247951e-02,-1.530022218968563746e-02,4.167153177030512301e-02
-1.238439161423652950e-02,4.612471714445353504e-02,-4.396081298777921448e-02
-6.297435497072906285e-02,-6.194388227962002030e-02,-3.246831295678097307e-02
4.630652433552695513e-02,-9.317003798787099750e-03,5.394775164841993792e-02
-5.645883950097447743e-03,4.849921048362633436e-03,-4.973208752921970399e-02
3.158550054665616724e-02,2.342242804350265842e-02,-1.973133548653463985e-03
-6.997919538806751834e-03,-7.690835347484838158e-02,-6.412392420532500581e-02
1.648806888356231515e-02,-2.665482574627522049e-04,3.300691137282444482e-02
8.882639335683138737e-03,6.675366516198717737e-03,8.388822599539639061e-03
-4.391496816666977387e-02,-7.306822468260833203e-02,2.354837373622096358e-02
3.039319078112492564e-02,4.514819094659394683e-02,2.339630782859626612e-02
6.170793229691494408e-02,4.578260463992665091e-02,-3.662332907658653880e-02
6.311953708035954180e-02,-1.011749790044022025e-02,6.354640579742662498e-02
4.096324260602769024e-02,-4.607087569669209015e-02,-1.094670944350834701e-02
-1.633783633705319233e-02,1.140692792735835230e-02,-1.220756130047493185e-02
4.037510455266230674e-02,8.722623082340763209e-03,-1.930954163724656752e-02
3.545254677857537923e-02,3.871842913395685121e-02,2.378087809467786112e-02
2.154411146685455622e-02,-4.817049113535706167e-02,1.789511930151991073e-02
2.562033646438210618e-02,1.294851586854975194e-02,3.768690311202922000e-02
2.867296596185896912e-02,-1.835640071461929965e-02,-2.148325149092835534e-02
7.536566016880744123e-02,2.497631593241780856e-02,3.351413835267420815e-02
1.711489269946499941e-02,-1.327475921231180411e-02,5.488593507264952209e-03
-4.065975562412648542e-02,-1.947710772788635580e-02,5.102773002393386215e-02
1.356403829873663140e-02,1.118056782927204229e-02,5.982354943219036353e-02
7.716194693552291817e-02,5.271001134128724952e-02,5.166043756703207757e-02
-2.549258270956989217e-02,5.472809762293651820e-02,-1.274508732912811061e-02
-4.160663219703664845e-02,2.421740458839443874e-02,-8.419525541959596571e-02
-8.005138122467173045e-02,-5.081098651188862420e-03,-2.220256122822506298e-02
6.432123456320179566e-02,4.521828788554669437e-02,2.050673121655883016e-02
-1.598530733940354762e-02,-3.536733653754075418e-02,-4.456023274123314948e-02
1.274006279312422853e-03,9.785601952649942981e-02,7.050946297121901685e-02
7.077788398423699723e-02,-5.187860140957609861e-02,3.937281541991961148e-02
-3.072083925325168677e-02,-2.992918613581426260e-02,-3.780415493830488471e-02
6.776707018402987337e-02,3.916199977452144813e-03,3.292433073534604959e-02
2.215547610603133162e-03,5.375299463211774542e-02,2.879393631662326147e-02
-5.620491278885383565e-03,-1.013155094304687837e-01,-1.165455513051483899e-02
-4.961741031811953140e-02,4.977796617701275850e-02,6.093982094813454181e-02
1.049638913245947748e-02,1.907711528388001407e-03,-6.782774008151107314e-02
4.118584682475637943e-02,1.510437527846495050e-02,-5.592764434294008810e-03
3.615635767357456426e-02,2.776220704561283698e-02,-4.799210858755439957e-02
1.649245411868398292e-02,-1.327994980063328979e-02,-4.484431356979318162e-02
-6.866373409945383810e-02,7.401604630888000691e-02,5.738727631266152956e-02
-5.615169459729543212e-03,-1.576271341597823561e-02,-1.703501976043444999e-02
-1.558353422548187234e-02,-7.519521943964797839e-02,-2.342519121312730632e-03
-2.127900029585762937e-02,-2.100112186923876190e-02,-6.175050824780750278e-03
4.491917936597538547e-02,4.071380981514139373e-03,1.596007618467794667e-02
-2.757534323261682380e-02,-1.523750364420298729e-02,-6.132094833478701074e-02
2.378793513387752329e-02,-1.696129247484529437e-02,-3.766074863918845300e-02
-2.021941936195759473e-02,7.199349998715145159e-03,-9.601873289753797003e-02
-1.687516773922921945e-02,1.178726244590050896e-02,2.524355710925168736e-02
-3.969288820388885974e-02,1.914541269905895016e-02,-7.966596709201459112e-03
2.225681241450836075e-03,-1.309417551155213633e-01,6.227959498638609842e-02
1.045809423956103705e-02,1.702558634428200796e-02,9.053789280897580824e-03
-9.000262187992789931e-03,8.436418451785082651e-03,2.109791794455228089e-02
-8.892703397397613840e-02,-2.997052216862249735e-02,1.113506920877835871e-01
-4.705672520817468646e-02,-2.095817944429766502e-02,5.407136776148262214e-02
5.561170862425993816e-02,-5.249732788301268889e-03,-3.105877452124823287e-02
2.120197291403188786e-02,-3.926646616999366485e-02,2.962147650982371178e-02
4.499848540731384017e-02,7.173119017250126350e-02,-3.527448014760760364e-02
6.809358478045043905e-02,2.758658029991322563e-02,-4.778987210324325136e-02
-1.724892462483220215e-02,5.368087919405178932e-02,8.299534759429219588e-02
-8.700260546963449818e-03,2.749443325832005847e-02,8.375488077901646622e-02
-2.557476182276717871e-02,-2.639862521171604942e-02,-4.293356290730369895e-02
7.485713589625596354e-02,5.375241483547443799e-02,-3.333109203154520014e-03
3.766123317953203042e-02,1.034293937915468781e-01,-3.498314456879419998e-02
-3.172767746225858831e-02,-7.735221944044998188e-02,2.279372731260496596e-02
1.741862898868499349e-02,-1.335931432349301597e-02,1.465035307171132922e-02
-4.118179147179955313e-03,-5.428780185559761370e-03,-1.801584591071482555e-02
-5.986534101518001250e-02,-3.017798326118221759e-03,-6.857356791476765245e-02
-1.905349351759535320e-02,1.896893647516362550e-03,-4.038778366806371894e-02
-4.738554245780853685e-02,-4.090780281256956551e-03,2.236540958087755368e-02
8.432712447868761368e-03,4.898375445109449250e-02,-2.262671162946257308e-02
-5.596313890483162884e-02,1.469146417822110411e-02,3.536255008018544116e-02
-4.200173135525857998e-02,-1.142121993774453635e-02,1.051735582812199019e-02
-2.425203646947530611e-03,4.705470135251162492e-03,-4.162379263783286786e-03
-4.889045752208118906e-02,-3.796695888728057831e-03,1.468897828253700084e-02
-3.276840524218258000e-02,-3.605021604099383284e-03,-9.108794800843984796e-03
5.182769779935492149e-02,3.257486218870606770e-02,-3.127306412806044045e-02
2.829100959067324880e-02,-2.583692298455058257e-03,3.854904103436786189e-02
-5.990703169301778326e-03,-5.627492781025604865e-03,4.887237190072523524e-02
3.303536165207394959e-02,4.295413382420080507e-03,-1.750800668790962467e-02
2.359915162400927011e-02,-3.328624958895982922e-02,-1.730881983766489191e-02
2.630256986210463901e-02,2.390930775758140503e-02,-8.940562590081545247e-02
-7.761802134522390040e-02,4.583403707210175621e-02,4.974253156837249445e-02
4.196862045803395613e-02,-1.464299521729542537e-02,-4.225927916925428796e-02
2.319880729071641806e-02,3.402217919551983605e-02,1.285476152528157445e-02
5.372884636643993073e-02,5.884189306801633490e-02,-4.086164152852780201e-02
-7.310322955037480697e-03,1.200574174727228050e-01,2.979739220711301317e-02
-4.423932763183936745e-02,-1.631890216214538017e-02,-8.746007407535732678e-03
2.112323245033085467e-02,2.804338352977932616e-02,-1.570836677973227839e-03
-7.953517417635574960e-02,1.630536528239341296e-02,2.073050386159572267e-02
-1.777885854393596336e-03,-1.411332618883091340e-02,-5.691460372043655874e-02
-3.103255080402683719e-03,-1.305662109307941486e-02,-4.896271878781151971e-02
6.648738317828947753e-02,5.179732257484602476e-02,-4.213366030529916428e-02
1.976698379826876545e-02,-2.224982033482396024e-02,-5.901320587826501540e-02
-4.051993449682903675e-02,9.300090855647348553e-02,-1.752782027120475261e-02
3.995923680719332127e-02,-3.411199434239875483e-02,5.858633584758300011e-02
1.367701558670237662e-02,5.073399166146943390e-02,3.710489492200839262e-02
-3.168350722948924669e-02,1.769090985366074745e-02,-3.797619987177952572e-02
-3.143562084001663010e-02,5.046085487568131162e-02,5.160179963012027221e-02
3.249341732366280155e-02,-1.024775416784055038e-01,-4.553293096345537722e-02
2.756059498716316447e-02,1.310170402588910384e-02,5.272313277818953953e-02
1.737518198784751208e-02,6.402889699449395254e-03,-1.321456603704012321e-02
2.922174975922780388e-02,-2.107664345375382785e-03,4.633329714160528551e-02
-2.294930390377880949e-02,-4.275066190943383609e-02,-1.258016616735020687e-01
2.654337597938905089e-03,-2.254775173549930511e-02,-9.557635711352204660e-03
-7.115095343725694188e-02,-3.419194738082045187e-02,5.595324815792684925e-02
1.774325522014157455e-02,-1.904875215740077163e-02,-1.377718517343940081e-02
3.357038239743168583e-03,-6.580783338558747475e-02,-5.011437401090054755e-02
-1.383410929875351740e-02,-1.857559334710292068e-02,-1.379147890794075668e-02
3.626935960908047457e-02,-6.009656496920305624e-02,8.320396558067200826e-03
3.819347698330576718e-02,-5.133447311941526786e-02,-4.854855014566892418e-02
6.546921359792444439e-02,-2.659526250554283822e-02,1.990355320456246163e-02
-7.799785257256603224e-03,1.122504467421405437e-02,7.590756604914856639e-03
2.045820508802588533e-02,-1.430788716513876728e-02,-5.184962101181804506e-02
-3.872693191116082650e-02,-6.021459570574125980e-03,-3.430817559725715671e-02
-4.326063460569146840e-02,6.763423866529737205e-02,3.784520685702555051e-03
-1.980368150339944372e-02,1.881761909198525345e-02,-1.687499662103326276e-02
-7.406074831962758398e-02,5.711356817676505049e-02,8.956359255359780738e-03
-2.189645636810169313e-02,6.059881538142749408e-02,8.523609723765720667e-03
-2.333269755327475707e-03,3.917601830626313980e-03,-8.497646803781033764e-02
1.664741488206243278e-02,-3.702759412508326020e-02,6.893958586057648275e-02
2.512318389316409856e-02,-1.733602447249348380e-02,-2.224097205839613983e-02
2.413602372340044322e-02,2.967595581501311294e-02,-1.157214445065729048e-02
1.628693255016972971e-02,6.469579123579328669e-03,7.628894338020513269e-03
4.480882695421982420e-02,1.536842809899438209e-02,4.903333782694870718e-02
1.180041261785905876e-02,-1.154109037871466244e-02,1.091569541097486828e-01
-9.762963635685985991e-03,3.498972463352437862e-02,-6.043285189358382076e-02
-4.568051634937297240e-03,-2.406727816160508446e-02,4.690970973254331156e-02
1.181819478879855313e-02,3.332491931008831065e-02,-3.561641776865674680e-02
2.572624519443139982e-02,5.146114716113069781e-02,-5.881657835518479954e-02
4.782968031025803396e-02,1.034366327118986864e-02,1.174453761703980401e-02
1.007994279637332811e-02,-6.112152223448404087e-02,-8.553583414382730232e-02
3.802157871055325544e-02,3.980227555829478174e-03,-1.128625903949729767e-02
5.075980211134722975e-02,1.032967337551794623e-01,-2.751434933914876160e-02
-2.871458419089536335e-02,-3.190266350501706760e-02,8.147657502160127185e-02
2.853436067839153125e-03,2.045137869272132050e-02,1.024189912483630810e-01
-3.452490778636127522e-02,-1.126680076600629181e-02,-1.383049718091495031e-02
-9.489864302654641565e-03,-8.197223946484162582e-02,3.154129079296438126e-02
-5.020239572596879585e-02,-3.446182081576241313e-02,2.663247976313538878e-02
-8.281379021009493361e-04,5.141798734804391147e-02,3.276692298691923078e-02
5.969197223895506173e-03,-2.752187768742159896e-02,1.820294694636612892e-02
4.425366952952023564e-02,4.161918414764038260e-02,-9.773823294118534274e-04
-1.453972128699357151e-02,2.188884238202117635e-03,-4.323497535650122625e-02
-3.545665878383644914e-02,-1.360135772533553437e-02,2.571950552562007886e-02
5.654891173429805323e-02,2.522962765157412551e-02,-5.801891669356284281e-02
-1.542350792649969070e-02,-3.421657944606452256e-02,4.205581485735075675e-02
7.101732301000365788e-02,4.279789395274571917e-02,7.760659639709740522e-03
1.602297313412545665e-02,6.819151257134366262e-02,1.689625945618040189e-04
2.166165733276703698e-02,-2.628503007303771913e-02,5.873260489466106127e-02
1.676218962188167141e-02,-7.160523997429919796e-02,-1.462593428468405773e-02
5.822192727964045633e-02,2.741209454092065692e-02,-1.937750249311810322e-02
-2.300323553771478971e-02,6.342054859850075610e-02,5.421877376062136933e-02
6.182304472311715010e-02,-2.427997034604472901e-02,-4.647986296245474463e-02
1.829646130752098782e-02,2.654486351177075959e-02,6.428743792253988065e-02
1.493176144706023258e-02,1.353603284069156837e-02,-9.925830984506245347e-02
6.654452549592565491e-02,6.271130275592026737e-02,1.472314481170546030e-02
3.004606568373125244e-02,3.110305223414908810e-02,1.544968753325107538e-02
-2.494462376036863868e-02,-1.950139594219222131e-02,-5.169352393322734947e-03
-1.182739432151376675e-02,2.681952935654322717e-02,-3.689387230080377889e-02
1.958575838921830167e-02,4.350958529475393993e-02,1.371386823893061893e-02
-3.394405870067829928e-02,-8.733728109746567584e-04,-2.934458140024192446e-02
2.999520074075361434e-02,8.138887161593895414e-02,-1.181737088632440168e-02
-5.180873335032011584e-02,9.369332073104574832e-02,9.626864607030460874e-02
2.928566888180404726e-03,2.575033679132046963e-02,-5.697174713315331096e-02
2.736865179071064705e-02,-1.161825217262970472e-01,-2.666996000850646933e-02
5.185142355700480404e-02,-6.698155215060022649e-02,-6.308175091101757281e-03
3.827261647546884027e-02,-1.040716176947472787e-01,-8.388064891870893047e-02
1.489667237838967692e-02,-4.533843300800796672e-03,4.841131634555954216e-02
-1.366399308610081673e-02,9.539035813395166721e-03,-7.035935401655783739e-02
-3.847947666462743499e-02,-1.699751741074087552e-02,1.214189074953767392e-02
2.863321529041109453e-02,1.603594993427650411e-02,1.020001121462189679e-02
1.666085142944193423e-02,4.000647513899157487e-02,-4.981844426575391532e-02
3.280756799271322688e-02,1.070805073389761303e-01,-8.024153395442670811e-02
2.924348961791790880e-02,4.952505069694792400e-02,-4.935574010718092076e-03
6.377608593703686102e-02,2.265452267781738541e-02,1.720432929875693323e-02
2.591370838116048916e-02,3.418638942497850830e-02,1.176425521863400103e-02
-5.202084968042577223e-02,-1.767654669764895728e-02,8.715767745345664660e-03
-3.975896200093421290e-02,-1.075096218872818692e-02,-3.549287480444413001e-02
-6.659441411448539620e-03,-3.348436387635991135e-02,5.292765492354762485e-03
-2.615176137892312111e-02,1.402652610984177033e-02,-1.451331062077012429e-02
-1.441847501704489852e-02,1.853110888333030226e-02,-3.704636899881785100e-02
8.299494268982567265e-04,-8.265668210614864411e-03,3.216859471699434064e-02
3.259453650134809533e-02,8.969999766690073262e-02,-6.924050623290644094e-03
-5.012884477120182992e-04,5.353144211315465778e-02,1.611396248121884159e-02
-5.929113514117389377e-02,-1.065209470088567326e-02,-3.619358802782559476e-02
-1.818848068925973255e-02,5.301958335827821472e-02,3.044618013711943363e-02
4.712876461094971797e-02,-7.605108596359044792e-02,2.672978189635597315e-02
-4.779464201099749288e-02,-1.134397958037618517e-02,-3.169719504809666820e-03
4.835105565923115793e-03,-8.188416963426119188e-02,9.596551735184007462e-03
-2.104358392262457075e-03,1.009328658309385784e-02,-2.050020232149963456e-02
-2.656702386587347572e-03,3.703981978731168967e-02,3.027664404887870503e-02
2.823417846196896869e-02,3.001686870898415127e-02,1.241532047805646213e-03
3.951998330981012358e-02,-3.180592671821395184e-02,-3.202777979034683586e-02
-2.869438757349466323e-02,2.332455378954391076e-02,-1.442353986262735928e-02
3.777226058484032568e-03,1.893600275526208243e-02,1.112031244199486110e-02
-1.232216150859022493e-03,1.731005162987982529e-02,-5.621656089438176185e-02
2.182419417620417093e-02,-1.099215055996959935e-02,-5.269192375061509254e-02
7.036103396560344780e-02,-1.377317372950597960e-02,-2.532219153995399555e-02
9.614758612899251475e-03,-5.883351385116098592e-02,2.131877097686602288e-02
-1.634663658631096972e-02,-2.605140394377022939e-03,-3.800956132730291120e-02
3.101077886825459942e-02,-2.674694808566364587e-02,6.311039597167211572e-03
5.416918949395408377e-04,-4.334347395532706093e-03,1.503821588228469557e-02
-5.697389003269215380e-02,1.918820497233376336e-03,2.945372736371302050e-02
1.650786257850708413e-02,-1.984132593360479757e-02,2.632447646247785319e-03
-4.088407502706994240e-02,3.277841447861404300e-01,-4.848198869355520302e-02
3.208859794535360438e-02,6.091320702766787054e-01,-9.098949794086454851e-03
2.108496845789577245e-02,8.902299186945553666e-01,5.191927813516307444e-02
-6.540761626676442481e-03,1.158182730453632070e+00,9.540403399440766652e-02
2.679197048639658796e-02,1.392000244226353933e+00,-2.028875504872054356e-02
5.201204106184680910e-03,1.711499064118343183e+00,1.721939432003341888e-02
-3.127129375316585469e-02,1.971677704404869225e+00,5.870533265644786031e-02
1.551149234742785557e-02,2.252504713310158557e+00,1.459570276952078943e-02
-2.801854186638695274e-02,2.552606476533548996e+00,7.742489677631773926e-02
-1.156813638565818737e-02,2.886493365146816981e+00,2.890526349671167228e-02
5.042116519933355356e-02,3.177113539069635451e+00,1.641057217232644652e-02
-3.206983594939337434e-02,3.476103463988179598e+00,-2.894739494980170386e-02
8.484580524329645053e-04,3.760341503882473013e+00,1.180322811927471752e-02
-1.849387116863007025e-02,4.012789378152914033e+00,-1.028428308119888335e-01
-5.494268096798003015e-02,4.249515106819603538e+00,1.423210515615153798e-02
3.916027128696093762e-02,4.635719547119981243e+00,-5.395585226987178323e-02
-5.627348310556633260e-02,4.892736445866657569e+00,-2.404130781574482026e-02
5.244860930453919268e-02,5.124542966017383350e+00,-2.710054598422357783e-02
4.017026300324379184e-02,5.337768914505845785e+00,-5.466542013831380067e-03
5.050119021691032439e-02,5.677622122749461653e+00,-7.926219473437023932e-03
6.555859045982818933e-03,5.974479638374883272e+00,5.453095326420347860e-02
-1.569037781613569563e-02,6.365455897296198096e+00,2.781929678383661397e-02
5.228672245895844145e-02,6.492980496760382358e+00,5.918729244460479294e-02
9.517655364742121787e-03,6.833934889981115646e+00,1.885258132182035876e-02
-7.583295364856748599e-02,7.209468896764401613e+00,-3.135379239722526495e-02
2.425789792528340247e-02,7.432748570995245885e+00,-4.718327586533568874e-02
9.734672902938583047e-03,7.747438545127962151e+00,1.769759271839729114e-02
3.237602837172114112e-02,8.008435193996263024e+00,2.475893569016918497e-02
6.582404639189329276e-02,8.357639464925719963e+00,-2.581516735289629202e-02
4.725672251829929338e-02,8.614522959483233322e+00,-4.790537580476351975e-03
7.237053519922155564e-02,8.896979536245076758e+00,-9.875031696012046001e-03
1.787466212083818964e-02,9.194407642102545353e+00,1.920727744233952095e-02
5.858546602165114192e-02,9.396797469232746280e+00,3.544568946443607538e-02
-1.332890250146602333e-02,9.805526225969581233e+00,-4.737527667504798368e-02
5.919414885081972569e-03,1.000862313962392136e+01,4.273460495174009194e-02
2.468224465415667923e-02,1.024829724808403064e+01,-2.711858966961692291e-02
-3.882307812402246289e-02,1.060753216495486662e+01,-3.544122865798407518e-02
2.087670518169566954e-03,1.086255077453456153e+01,-4.464885507218948474e-02
-4.857875299117764972e-02,1.119312038738112847e+01,2.930355437129933058e-02
1.051661248742317804e-02,1.139677669681934447e+01,2.109190978444661427e-02
6.672635692552579545e-02,1.180711342114551421e+01,7.431232259512043220e-03
5.371620529380462250e-02,1.203368794359829508e+01,-1.138914490376879106e-02
-1.878097589961086680e-02,1.235749289327218747e+01,3.982878631983696044e-02
-3.857467250725728214e-02,1.264919326993813620e+01,-2.763231032773089905e-03
-9.423786223537916618e-02,1.288147062269768917e+01,3.569005193294769868e-02
-1.844410234173843831e-03,1.319297979766461992e+01,2.663521919281342659e-02
-7.075396586748856388e-03,1.351223247948718154e+01,-2.267065421548863230e-02
4.860969206037650536e-02,1.374810723862095507e+01,-1.640018073283596584e-02
-1.354989487876539882e-02,1.400227892366849325e+01,2.826929261031029678e-02
9.709029279865040440e-02,1.429304737154227567e+01,3.449696432756149678e-02
3.847409411304072296e-02,1.462528762580890351e+01,2.789886750190846698e-02
-8.555057944230938516e-02,1.489785734922396365e+01,-3.813843979410460466e-02
1.376856808264645231e-02,1.521239266061424900e+01,1.091598680118230531e-02
3.657476286398062600e-03,1.551070686273336285e+01,2.069865364989496512e-02
-1.284005966093241385e-03,1.572627436641037768e+01,-2.934654074189206943e-03
1.432337601321806431e-01,1.605141170590670185e+01,1.668726159791634675e-02
-7.564887333992541263e-02,1.633213314261800519e+01,-3.136119402904716941e-02
-9.408290684423767369e-03,1.670891504294262475e+01,6.277698593711997059e-03
2.923900173913293252e-02,1.695429487385371203e+01,-1.880879364697935711e-03
-2.893868164957472556e-03,1.720000905232105737e+01,-7.869169760197648397e-03
-4.341796496996812305e-02,1.749699159779769886e+01,-4.732904553255735947e-02
-2.516498096653906058e-02,1.771327725678316867e+01,5.932629697102357463e-02
-8.643581904260344562e-02,1.792620670527591287e+01,-3.718669322452899245e-02
-5.249281812959461641e-03,1.812683643659072885e+01,8.533811378754853350e-02
5.812394981205448036e-02,1.825794798467886793e+01,-9.401101055322992617e-02
1.300071309586874058e-02,1.837482381886438887e+01,-9.051479209226800243e-03
-2.764033444694370678e-02,1.845381445871528570e+01,-4.274343789995777021e-02
4.238815414581396934e-02,1.852662292415587331e+01,-6.235723486209105576e-02
2.797946106345828785e-02,1.865675349305638164e+01,-1.344795957866273123e-02
5.410789603442846263e-02,1.859955097387351941e+01,2.526468002870917856e-02
9.695299686272337673e-04,1.869774154968348512e+01,-3.811196558234208626e-03
-6.790420274059896441e-03,1.864371241859603501e+01,1.284004365041037550e-02
1.392672214452106774e-02,1.864935364194085565e+01,6.855056371654324500e-03
-3.769321293557928443e-02,1.872256291111464321e+01,2.452199531361008017e-02
1.939550823305273217e-02,1.864209363965207800e+01,8.482972593668895375e-03
5.563818209328776077e-02,1.870774742734047180e+01,-2.847328649970664802e-02
-3.289049037214953480e-02,1.865601479562588594e+01,5.710936128497210058e-03
-3.261347287692580726e-02,1.861023894612182517e+01,5.570043551159680612e-02
-6.328015128091448241e-03,1.855092558984149775e+01,-1.005458013212364755e-02
-3.126736525312512338e-02,1.847421659635080005e+01,2.233661839090224366e-02
-7.012327984644586842e-02,1.852122859341459815e+01,5.293662297061424438e-02
-1.611972269629413645e-02,1.847651647327948510e+01,-2.741780549575307049e-02
3.214550733185226467e-02,1.838289609273353520e+01,4.976106539503510895e-02
-3.441335413847192159e-02,1.828429319205356762e+01,-3.146017320944595463e-02
5.457111453842523885e-02,1.816510629422439393e+01,-5.712835740210502056e-02
3.838178896082040936e-02,1.822615233986599037e+01,6.936681820732434889e-02
3.208691810831280911e-02,1.805158761587069449e+01,1.267534375615811393e-02
-1.741735030825458663e-02,1.801744212875997420e+01,-2.793125304398201905e-02
2.616496654789407517e-02,1.799035369589312339e+01,1.340333912773083481e-02
1.936352889493493309e-02,1.784083243907335969e+01,1.959716708928441534e-02
-7.285241899923812492e-02,1.777961401690245680e+01,-1.970912505550280122e-02
4.530220129852930572e-02,1.778009001424778646e+01,-6.305190950057897037e-02
3.238439825046032783e-02,1.758525790788113241e+01,-7.534785587726038070e-02
4.473052152369262624e-02,1.761347057022233287e+01,1.868333180502635901e-02
-1.541047047158450138e-02,1.750570082519200099e+01,1.030461429755459048e-02
1.370824833929483455e-02,1.732357793303480165e+01,-1.369261432254497042e-02
-5.966100034670110408e-02,1.724993706124188009e+01,-8.311259532129694483e-02
1.759655778119989175e-02,1.730044625291025184e+01,4.367015260193488069e-02
-2.981150011382949216e-02,1.715260675243137811e+01,-4.718920960208423249e-02
-2.629684862279459481e-02,1.708351712152216706e+01,-3.233790031452028063e-02
1.368368139912997175e-02,1.706264297673284602e+01,3.465979894847419363e-02
5.483222636571381120e-02,1.687826893395037331e+01,5.396397481375930696e-04
4.863275134169034453e-02,1.683603002666218273e+01,2.339853061119201438e-02
-2.814888800400672589e-02,1.672284702929108491e+01,4.426777652672016922e-02
8.027051511932314920e-02,1.666106033775193040e+01,2.321600262713742133e-02
-6.715048541401708038e-02,1.660121975290297414e+01,2.414642985524724852e-02
4.102673343781271936e-02,1.654603285090975007e+01,3.292750054875462351e-02
1.164544242014338253e-03,1.639203861162231135e+01,4.385725986708939594e-02
-1.088528209438872039e-02,1.632900472246758028e+01,-5.710757992411568534e-02
-2.355429259196143224e-02,1.627784000273034337e+01,-1.248678131944350178e-02
4.297947860082386266e-03,1.617119320581820574e+01,-6.928472658876317844e-03
3.209202729769689965e-03,1.605045696509327868e+01,1.750219981505390108e-03
7.189899434705796996e-03,1.598612160995169695e+01,-1.662542565314959961e-02
-5.209590588123693029e-03,1.589397205206747188e+01,-4.024515650061836168e-03
-6.188006877064042982e-02,1.578488036590101018e+01,-4.528367868417254583e-02
-1.837728750905867972e-02,1.580439207604712593e+01,-1.508892159892505705e-02
8.327131823014278025e-03,1.566112213444124635e+01,-4.998005054601233066e-02
-2.158020509196673618e-03,1.560932212760598148e+01,5.084864042060290024e-02
2.515722742147495292e-02,1.555031253405845248e+01,4.353561614683920666e-02
1.396455873671034048e-02,1.545110699108264640e+01,2.774470152812109555e-02
1.730650805501844636e-02,1.535583028288990803e+01,-4.950402589735828501e-02
-1.694014581142433418e-02,1.531795935999951297e+01,7.764204830775371657e-02
1.248799569280214031e-02,1.514399823204390927e+01,2.637630945998637247e-02
-8.587243082131591765e-02,1.508811832096852257e+01,5.826545356195680925e-02
5.993365898874503106e-03,1.511647544177854385e+01,1.884539432249565313e-02
1.166117535909245440e-01,1.502600991544104403e+01,-5.336197754863680753e-02
-3.695796458732510809e-02,1.486070373141594025e+01,-4.960654562247539257e-02
2.206183613305412461e-02,1.475174375866580689e+01,6.501046774058313882e-02
-1.592347980652588160e-02,1.484540313849076831e+01,5.642929735782672984e-02
6.390720167052407752e-02,1.466600372019644460e+01,-4.937774183857499694e-02
1.855208888494231864e-02,1.457167506355138542e+01,1.376316306922181244e-02
2.309235259346727187e-02,1.449878433705132963e+01,5.168881083592322817e-02
-4.579846983880773298e-02,1.445907669392838457e+01,8.710369542482010452e-02
-5.184611067547715418e-02,1.432940877748193209e+01,-4.145163017377329062e-02
-5.545307625585199629e-02,1.430062390042628628e+01,-3.714209332685864534e-02
3.131536498524511991e-02,1.420518353490361285e+01,-3.062446828743142779e-02
-2.790540591501234919e-03,1.413907049035039876e+01,5.530794590158024521e-02
-4.537215210102064911e-03,1.412894945352488030e+01,6.757962205197532747e-03
1.910120308850786833e-02,1.400842657946447289e+01,4.150288908658876508e-02
7.510438186228174384e-02,1.392820827482586665e+01,-4.903936094917627636e-02
8.193876669906511451e-03,1.380664116092508742e+01,-4.091168625192009856e-02
1.733772742606559669e-02,1.376228417312902863e+01,-4.171261874734883551e-02
9.024722726941665496e-03,1.373827318724431201e+01,-2.599876611331466622e-02
-3.632486323111502186e-02,1.364866741180489207e+01,-5.266519389169213583e-02
-2.805399827007225289e-02,1.356560878324807184e+01,8.936373897482566622e-03
6.449179674444530108e-02,1.351461012887622104e+01,1.972461614919136103e-02
-1.797389916437814456e-02,1.339367468736026190e+01,3.297359986422659234e-02
7.682059787625614145e-02,1.330511673694435792e+01,-2.201947146596353391e-02
-5.511984280934169311e-02,1.321351292838031988e+01,3.635879387523596740e-02
2.439270972592424980e-02,1.326837120286764105e+01,-2.159901151252770907e-02
5.082054201115922265e-02,1.311487621890920074e+01,-2.148639771129744191e-02
7.872212836271778869e-02,1.308425205265719704e+01,6.378684972756859355e-03
5.846276449578209633e-02,1.297684742083821163e+01,7.829722087205376324e-02
2.715575407910932743e-02,1.291819856871924976e+01,2.825368468910859077e-02
-3.230093901955882751e-02,1.289719199098996683e+01,-5.560102585391323016e-02
6.196491299629634103e-02,1.277701587483353585e+01,4.498170191433748660e-02
-2.945658962320030216e-02,1.269823573149476026e+01,1.487180704215544311e-02
-1.780566484713476047e-02,1.262534311005531151e+01,-1.422386209833631510e-02
9.198424643983407756e-02,1.259802867648424041e+01,-3.925877439167519550e-02
4.490083155865039199e-02,1.257188159843373576e+01,4.540624416543823788e-02
4.567723154555099890e-02,1.251986165127563666e+01,-4.618869816410647172e-02
-4.254552730519614578e-02,1.239717259931441617e+01,3.169971676508100134e-02
-9.559187075055425656e-03,1.231033182338681975e+01,-6.745752848077606056e-02
-5.215595546440101454e-03,1.229973473366602477e+01,3.288926674538521222e-02
-9.526669590017702860e-02,1.217375192551791585e+01,-5.451055545897674770e-02
-6.785066751097679205e-02,1.210413004980430074e+01,1.046112367752186859e-03
-4.012895008969136895e-03,1.200872281947587439e+01,1.750597832487691199e-02
-2.461991097071982229e-02,1.199198062088150252e+01,5.133331596143522052e-02
2.890428136192053563e-02,1.193136363223280938e+01,3.847434789473962169e-02
1.081098537191973498e-02,1.190426357673203306e+01,2.788952891842397946e-02
2.333165207331056382e-02,1.178861870116944033e+01,-6.057114834584124974e-02
-4.911840838160192596e-02,1.181298134111953679e+01,-3.537394472311357341e-02
4.124441695696667333e-03,1.164166956627134297e+01,-6.549924690472776201e-02
3.498656783071948939e-02,1.164749471194250852e+01,3.474443569239760166e-02
-3.579502612999690969e-02,1.164138419307992223e+01,3.360503098032268515e-02
2.536433053202259008e-02,1.140392411316387999e+01,2.637996936292668834e-02
-1.691611965333348136e-02,1.145978421212154075e+01,-5.182019761700400184e-03
1.610626049938907161e-03,1.134937123149195415e+01,2.868811499508845328e-02
8.933479602003405184e-02,1.136499789121707060e+01,3.784235602157428463e-03
2.442363426665129789e-02,1.125717275339819423e+01,3.925498381096808459e-02
5.009609819529826230e-02,1.119125235978473398e+01,-3.347557991048375620e-02
-4.474073760230740798e-02,1.113728796707303559e+01,1.413661363424035533e-01
-5.819664830142316780e-02,1.117573224499861340e+01,2.630792105933221769e-02
-2.412395799687563555e-02,1.102605547024035104e+01,1.290162956342885388e-03
-2.261686183288522806e-02,1.095575637209909381e+01,-1.056133822923551041e-01
-4.496978856785236595e-02,1.091020756170272499e+01,1.851884737321820087e-02
-1.127361812162792866e-03,1.081119541181854871e+01,-1.962901884331828134e-02
2.046704476745839739e-03,1.084284865262377018e+01,-3.992068638888272153e-02
-4.415165568771525773e-02,1.071932934088890477e+01,3.061498185485124826e-02
4.364436721473822361e-02,1.065192704558650405e+01,2.316182285298791846e-02
-4.247204004859934934e-02,1.061258043237675430e+01,2.398106129573744291e-02
1.980211758867347904e-02,1.058747561648100266e+01,2.879935077527888410e-02
-4.060351597067448498e-02,1.054358586464586800e+01,7.611915158911508605e-02
-8.060910747746249938e-02,1.043613004748076811e+01,3.216915882674634825e-02
2.459569671092428690e-04,1.041569069168251183e+01,-2.432748498320688735e-02
2.983765393729966020e-02,1.035101801707787494e+01,-2.466400805326751308e-02
-4.356809959574975584e-03,1.030339334878520319e+01,7.788031603589562826e-03
-5.713858167256408160e-02,1.018189957066031148e+01,-5.180166650648166532e-02
3.785397794261476101e-02,1.017730705904504696e+01,3.213105387150908682e-02
-4.525338430576035520e-02,1.024339667688307465e+01,3.842048024428938030e-02
6.913163536966752953e-02,1.019087431203005778e+01,-7.975173444934341438e-03
-5.643896795819913076e-02,1.002018397614667755e+01,-7.442898583947493707e-02
-1.246753426432715278e-02,9.980324441058515461e+00,-1.840779250638996042e-02
-2.341153773033965643e-02,9.960139688496489896e+00,8.139144503701845057e-03
4.179537089970703639e-02,9.783399233614190393e+00,9.987584947971205052e-02
-6.928597174460373112e-03,9.831360380809641697e+00,-1.511444111315194891e-02
5.133854700244439018e-02,9.760335400302947662e+00,3.013496356559520247e-03
4.647478576165912922e-02,9.735672071987206522e+00,-3.640334193317296824e-02
-3.444227817254556356e-03,9.648537220669670234e+00,-2.079348801126642068e-02
3.098873310878594994e-02,9.603749425394111583e+00,3.318105691602125235e-02
4.919881718492764150e-02,9.517211316538597643e+00,-8.275939637872585519e-02
4.935007093231217473e-02,9.516332187646245444e+00,5.298281544097106083e-03
-4.433167192078343172e-02,9.493995809229515359e+00,4.350689030785649669e-02
4.135500528047858504e-02,9.420403875631023993e+00,-2.835455823982846544e-03
2.326717404309450871e-02,9.458613019817962098e+00,-9.935464219298764665e-02
1.131434761487914477e-02,9.427887851751105330e+00,-1.559966130214706509e-02
-5.384269678940421799e-03,9.261309407925006454e+00,-4.287118813727878834e-03
3.788701857905332065e-02,9.196410243278403840e+00,5.427553711331121501e-03
1.032648711069630507e-02,9.228495797072216789e+00,-1.337855431676336290e-02
8.474393493697154889e-02,9.101779250194226734e+00,3.983850066615601815e-02
-2.080271006296610659e-02,9.092282740380840167e+00,-4.546967819857714033e-02
-1.527170990482635583e-02,9.029061811550665340e+00,4.153861428523866750e-02
-4.190040273292085227e-02,9.022594215126217065e+00,2.382166685786652957e-02
3.157762450743843707e-02,8.938850092190577357e+00,9.565648508262446226e-02
1.082660147442679986e-02,8.908365790249700211e+00,4.134050076045112793e-02
-3.889537202218856099e-02,8.734219564965689742e+00,-4.235703661857621871e-02
-5.707106488818804862e-02,8.796548103467682012e+00,-2.670296782074512570e-02
2.831890738753363446e-02,8.697653031735292473e+00,1.949370505185627975e-02
6.676602720562757609e-02,8.734903533736346759e+00,-1.317584399471107698e-02
-4.621647163786896800e-02,8.628691092985540934e+00,-1.110539903381390497e-02
2.178589348841801845e-02,8.675476721869159746e+00,9.637207819114883625e-03
1.932415179719361442e-02,8.582177583011178612e+00,4.071583443081897707e-02
-5.790312077810885749e-02,8.485253301165300854e+00,2.083374312914353793e-02
4.912691719116994010e-02,8.414663696178530827e+00,-7.286155745439598652e-02
-6.838895997955118933e-02,8.490316529812432123e+00,4.748521033888279674e-02
-5.349823763873961385e-02,8.330182930853483825e+00,2.978017705128487361e-02
-8.936972356573922791e-03,8.357999585503305795e+00,-3.634307659566493598e-02
4.818480822737214279e-03,8.253063909483847382e+00,-7.408456987846169517e-02
-2.917899858731701213e-02,8.252601063868230113e+00,1.916068506499468346e-02
-2.705605708730781777e-03,8.194536818730410843e+00,2.339881702092624569e-02
-2.126871168355378219e-02,8.188329918928911155e+00,-1.519554415597291390e-03
2.707095069563750581e-02,8.150685585443762093e+00,3.697920313264847769e-02
2.858683819316448077e-02,8.114441834681528576e+00,-1.264742934756594127e-02
-1.605142449918935815e-02,7.987061630831536974e+00,-1.386203560822567293e-02
-7.619263487059632634e-02,8.085141354350852794e+00,-1.717662198895909473e-02
7.092833307973527013e-02,7.933615955905904293e+00,-2.359639200223636463e-02
-1.423620343844485443e-02,7.929233634008610032e+00,-2.672738191441298081e-02
-4.721574903439548776e-02,7.794395848799624105e+00,-1.604478016503629867e-02
-1.647647537861373843e-02,7.782354789359832381e+00,8.223451366748441016e-02
-2.574365240428182211e-02,7.705331621833250821e+00,9.140323807734360845e-03
-2.716214137226251671e-02,7.736768311284751398e+00,2.250060075673649199e-02
-1.442062206311018301e-02,7.735868004814885346e+00,7.477117419124703832e-03
1.295886278395864087e-02,7.601400933328271492e+00,-3.867324802809081474e-02
7.519837240667555378e-02,7.684262295234759677e+00,-5.561655169716141212e-02
9.657270019898549955e-04,7.603023973800905111e+00,4.783503609703115139e-02
2.755672878153437449e-02,7.530084303631980447e+00,-2.587855849833453278e-02
-2.034302553745439418e-02,7.575988843293787411e+00,4.559890680108721894e-02
-2.144351855308456595e-02,7.425750907612034268e+00,1.861546585346740210e-02
6.361134830992459799e-02,7.521498025871957260e+00,-8.625656613998604338e-02
-1.082828191012845560e-02,7.296134049853362669e+00,4.805061356847978304e-02
-1.374742285795043858e-02,7.345321130521226927e+00,-1.373101639160728867e-02
-3.116699917138736342e-02,7.321910495206764402e+00,1.275651182909260002e-02
1.601013262418790259e-02,7.264966716844678096e+00,2.737494869279443171e-03
4.032655422929857375e-02,7.275690814631166070e+00,-2.248378853811880060e-02
3.845156857499540393e-02,7.174711096902414376e+00,-1.353826733092955599e-02
2.941668212552694256e-02,7.189016963814091277e+00,6.147077498382748188e-03
-2.287670495527350037e-02,7.067280730050079285e+00,1.763519431555624420e-03
1.276823462418459273e-03,7.095179353388019194e+00,-2.093745846534895982e-02
-1.803878442625390932e-02,7.099798759944452975e+00,-4.353960307763753146e-02
8.474326197803867811e-03,6.980921533092115716e+00,2.040336434306183697e-03
-5.438058205523755954e-03,6.980237905274597310e+00,2.564152079498079658e-03
1.837709108875102554e-02,6.945289964847611408e+00,3.953015253333304335e-02
-9.004513107100148295e-02,6.919191967824420253e+00,6.046843162586621780e-03
2.733828313327394885e-02,6.905338348602598764e+00,-5.236530360877645479e-02
-5.776803773543817688e-02,6.857115154228965892e+00,-4.909800010937549752e-02
4.158715070113653406e-02,6.707074531924675398e+00,-1.274656194690859147e-02
-5.952038491558694563e-03,6.733774298254705748e+00,-2.852718467601345759e-02
1.233332700190648140e-01,6.688129454775959104e+00,3.552182758973662646e-02
5.434994125250275712e-03,6.682467278167378844e+00,-1.009122025575845925e-02
5.051400364322072845e-02,6.688793682843193977e+00,3.217107841986314304e-02
-2.866492247770213719e-02,6.652129071307390618e+00,-4.880915562519620721e-02
-4.951333893639832742e-03,6.577410532584313074e+00,-8.187326740187304830e-02
-4.196897834192743482e-02,6.517970235489375597e+00,-8.205677794841098951e-03
7.261397919371961884e-02,6.423152070455098617e+00,6.874539720251445982e-03
7.183931653547859231e-03,6.448874382348182444e+00,1.948224751745632546e-02
4.536258226207717098e-02,6.494498916500418773e+00,-6.947914561816133372e-02
6.150671770147614348e-02,6.384514084067675732e+00,1.824903955686744614e-02
4.053439432464027437e-02,6.386064255699382741e+00,2.057038855036458919e-02
6.661546307192092731e-02,6.355232207207611950e+00,4.180292236814801138e-02
-2.114623764950358115e-02,6.257566103488213294e+00,-1.834063862116434504e-02
4.144463214177938198e-02,6.303167756698062618e+00,9.810018140927431393e-03
1.887799277237686355e-02,6.334520437520555269e+00,-4.277751673237031871e-02
3.599195162631819989e-02,6.177411238308629038e+00,9.215302535098357506e-02
7.914721804628443991e-02,6.176255470029826888e+00,-1.288645384947648565e-03
-8.156261266300682614e-03,6.220304827767250799e+00,6.256516377472390311e-02
7.808795798638737407e-02,6.132007127621453613e+00,-3.714526280578244605e-02
3.792249699291429244e-02,6.152989275883960829e+00,1.985765031128077125e-04
-1.431616752656265793e-03,6.095253266632277622e+00,1.610265930125424905e-02
8.119416504283408220e-02,5.990714933810699527e+00,3.376294865478350615e-02
-6.586363260352877391e-02,6.050349032355088141e+00,4.696399309373389293e-03
-2.500771787187095613e-02,5.938014433717860641e+00,5.922592809027721339e-02
-5.237790169455926875e-02,5.921926082159710170e+00,-5.618419047293120305e-02
2.493019298849565371e-02,5.862853279111082117e+00,-2.812991883302849716e-02
-1.639986094106307690e-02,5.894536161424114518e+00,7.310265140811998685e-02
1.717210994634607579e-02,5.821423438634920622e+00,2.345483323911229032e-02
-9.476143279086392257e-03,5.777132826226815787e+00,4.008645573475558971e-02
-3.480150036060147140e-02,5.703844140970836030e+00,3.456658755253700331e-03
-2.761867769732829006e-02,5.748319965186018621e+00,-9.635388280438415831e-02
2.082269389146880825e-02,5.661692423227661308e+00,4.111737987058794452e-02
-1.489092158381829373e-02,5.664704862924604178e+00,4.632588697210045237e-02
8.703464656635783239e-03,5.549961949545897610e+00,-6.727982241877800140e-02
2.223159502392127451e-02,5.638171590000762734e+00,-1.218775825912741737e-02
-1.617123792877999192e-02,5.642209122273887267e+00,-4.229614144274575216e-02
-1.902569719721421138e-02,5.593380331339055545e+00,-3.055032593860195628e-02
-3.970145506739875679e-02,5.589779003060512785e+00,3.437930200435988098e-02
7.849386851116861574e-02,5.539573347820434535e+00,3.144558919452079132e-02
7.529029685652834092e-02,5.422523250835771691e+00,3.903139110303967957e-02
-6.633576659246845364e-02,5.389845257972464054e+00,-3.472397212126675237e-02
3.952585972582368240e-02,5.433310481900495148e+00,-6.608534545574918685e-03
2.455988475919100231e-02,5.399371867368919276e+00,3.913881240355512187e-02
3.601784970388868107e-02,5.366697328882587215e+00,1.563610206131095526e-02
-3.468918053285866693e-02,5.327133873137543496e+00,5.886776697586740270e-02
5.203279542209955644e-02,5.281978568587694767e+00,1.601039036914568559e-02
-2.871845918175867582e-02,5.305058570496922421e+00,8.937972244932861077e-03
3.403905745174783809e-02,5.215429176724828864e+00,-3.289750065665681799e-03
-2.122792950345319014e-03,5.221115098246126962e+00,5.817076505331881392e-02
-2.649581983994891976e-02,5.185859821794522873e+00,9.073482618795260593e-03
-1.113120287361332034e-02,5.099525622514010870e+00,3.197521981537279623e-02
2.223253243943254867e-02,5.095430986489443370e+00,-1.743109524795788704e-03
5.828755563075505020e-02,5.086064657454008042e+00,-6.323403133874290483e-02
1.135721856773008395e-02,5.060083595339515128e+00,-3.791610288305948678e-02
-5.267553230535071407e-02,5.116846186788422735e+00,-1.680941844911610110e-03
-1.427749237874188608e-02,5.005083386272206170e+00,-1.240132233269291770e-02
2.386485800301694701e-02,5.000429413219686481e+00,4.441078166108557851e-02
9.821532313563596794e-02,4.967258933430577450e+00,-7.236866126870479532e-02
-2.972753037145258598e-02,4.972747351320633946e+00,-6.654139925316358839e-02
-2.196654508658662727e-02,4.993017031644780168e+00,5.267087729087788564e-03
5.689125478548184150e-02,4.948276892694257079e+00,-5.215508337169580226e-03
6.723669041933487411e-02,4.932426141274802944e+00,2.390226756501881173e-03
-4.657708711181856448e-02,4.816383066291718862e+00,-1.340955217556159297e-02
2.402870752267073987e-02,4.845833251676923581e+00,1.516929059391772423e-02
-1.200130311251149974e-02,4.792895591038226044e+00,1.220340811207073356e-02
1.093776504368244515e-02,4.713338724464011698e+00,-2.584687376666083142e-02
1.645110923639674788e-02,4.781726497084225258e+00,-1.128113817115762932e-02
-2.591694252821006433e-02,4.703771582489973291e+00,-7.034548250076123064e-04
-5.824160166522433790e-02,4.642406422438593694e+00,4.263960058803236558e-02
-7.224580623977294724e-02,4.661391129597945771e+00,-2.676612107551118100e-02
-3.547650487264986802e-02,4.660866135819693667e+00,6.101921890733174453e-02
-1.239915998460439442e-02,4.568639479001119774e+00,-1.887812405612993016e-02
1.128626098120180665e-01,4.571481451422625852e+00,3.628459956541219000e-02
-2.535339147559610012e-02,4.601294746584590811e+00,2.977913037431264079e-02
-5.727900956582791109e-02,4.496755711815421996e+00,-3.263318223486998820e-02
2.918298977486727744e-02,4.503801407791016231e+00,5.221065065508657260e-02
2.252615657382983031e-03,4.544918221961851579e+00,-1.275806080971749953e-02
1.913707631320619301e-02,4.532429153817427725e+00,-1.274727983313987505e-02
3.391553459480975419e-02,4.435107802827751300e+00,-3.401381769043630710e-02
-6.481338610367444637e-03,4.445468725727452330e+00,1.284809030193797760e-02
-5.870651366747325212e-02,4.401130086766254834e+00,-1.794503753952393166e-03
-3.109665525651386653e-02,4.369650663509226263e+00,-1.079470704726102730e-02
3.669433194862883885e-02,4.359893498520048816e+00,1.284382343725559358e-02
6.410914267430084523e-02,4.331624108258362860e+00,2.658362629387734516e-02
-6.193017131841022788e-03,4.363263860451725762e+00,1.773531820329100938e-03
-2.059563175965276050e-02,4.295617034102676257e+00,-1.054106191799078843e-02
-8.517439433346378486e-02,4.208304833284503665e+00,-3.926547030421226325e-02
-4.917435198585124595e-02,4.247441307504267627e+00,6.594919490097682357e-02
2.576651797256918758e-02,4.184577946604556509e+00,3.099398749236358021e-03
6.026636464051412893e-03,4.181762468359749185e+00,-2.210949265337182681e-02
4.363013905116122464e-03,4.265900594373293053e+00,-4.227118702650701360e-02
2.799665886738967810e-02,4.210094960408936160e+00,2.263744278281012642e-02
-9.409580437478948234e-02,4.133891203653750068e+00,-4.156307767813804260e-02
1.103267474256873796e-03,4.135275396170131401e+00,-1.707320512217968406e-02
1.955790054458956054e-02,4.066781110361095131e+00,-3.880542157822865212e-02
-5.102165925935936430e-02,3.978532837726969973e+00,-3.837876031124203002e-02
1.895260840391826615e-02,4.068030124823478921e+00,6.966589976193253431e-02
-1.501412498947729025e-02,3.993587838803275503e+00,3.037194806134195513e-02
5.659210809888288313e-02,4.046381754925131524e+00,4.144789445946653328e-02
3.381647257845763616e-02,3.958815768046324290e+00,-2.514011478265189628e-02
3.699760713718591026e-02,3.938011666674980038e+00,-2.520514260358085873e-02
-2.232287988509752685e-02,3.969779938254159646e+00,-2.110792669217843257e-03
-1.170403679882559347e-02,3.907895045351124086e+00,-2.096177910711543788e-02
-9.504544021852846108e-03,3.846608450638889121e+00,-8.094303151818756092e-02
-7.670675209047693455e-02,3.898860604887443682e+00,-1.779464362423485713e-02
-3.127886981594398940e-03,3.910932986767784669e+00,1.308753469668868727e-02
-5.315860008071789794e-02,3.871776050343765707e+00,1.135335896602088571e-02
2.186708056046851069e-03,3.873699999595563437e+00,2.503803217616535140e-02
-1.197128278074589824e-01,3.732233320563790535e+00,3.371572137711847938e-02
6.181831686900872425e-02,3.706719879676790619e+00,-9.061548996160603830e-02
4.963660028624061055e-02,3.784144777802854520e+00,1.916666906154807642e-02
-4.266310443610252939e-02,3.766085952645394919e+00,-2.292817742521769883e-02
-3.291360871607809657e-02,3.718094853516041187e+00,4.736574798864962715e-02
6.859550492123973886e-02,3.706863287643446636e+00,2.877841596643613414e-02
-4.872416493105176383e-02,3.689915993466294175e+00,-1.891734965180313227e-02
-1.523340943186820597e-02,3.687928303231370997e+00,4.610822353889013070e-02
-2.383588564068178997e-02,3.580083322787142475e+00,-3.050506848411407498e-02
-1.972568479823146384e-02,3.631428783139455607e+00,4.759611849441362091e-02
-1.860524103068456666e-03,3.568536358382762508e+00,-2.898663162734037638e-02
-1.011296223587091446e-02,3.626930951062789621e+00,-6.314024004683378710e-02
-9.220383219947357600e-03,3.564517550352107822e+00,4.658403633387032949e-02
1.027805884591582314e-02,3.539414592950230531e+00,-5.172183105985066892e-02
-1.226485785949444317e-02,3.568343548586748515e+00,-1.518557881733297900e-02
5.088126557418077428e-02,3.538138791088852209e+00,1.292897609500154830e-02
-3.338134643081334257e-02,3.562576576218427604e+00,-6.401790593459967885e-03
-2.752076969871611323e-02,3.539349852786456641e+00,3.957634583099438330e-03
8.305374601461314177e-02,3.463375682511780074e+00,-2.232742995425381419e-02
-5.943241823885225122e-02,3.459709749563467884e+00,-6.920189248450396569e-02
6.570119520389612611e-02,3.380331138186708273e+00,1.245048020810324632e-02
5.980891012747435037e-02,3.377834287500822708e+00,-2.801792742731262342e-03
4.233455522508233065e-02,3.396578184583890714e+00,-7.919451516353212886e-03
-1.047611221770140127e-01,3.356060481010549434e+00,4.318622260859703715e-02
-1.179818442755481769e-02,3.354481237022324258e+00,2.690381908430366023e-02
-2.762197391695222007e-02,3.267146199154828512e+00,-1.462541831281483073e-02
-2.785961396299467541e-02,3.309486560431650570e+00,-3.375784320320104892e-02
3.523011261904512859e-02,3.288239119401191513e+00,2.367785689153482573e-02
3.359174731428777455e-02,3.313426832619534856e+00,-6.661141415369427332e-02
-5.049602624797552147e-02,3.255625805726555466e+00,-2.489712355741933308e-02
-4.661386797053372610e-02,3.281360049649777455e+00,-3.458095330843571902e-02
4.628330005840605721e-02,3.192051404340579879e+00,1.680364521146342216e-02
3.995147276382279150e-02,3.133644454888880659e+00,-4.964126515673700918e-02
-5.540961105304752915e-02,3.224620264674194381e+00,7.044744935259444896e-02
-1.285175606060626544e-02,3.253228902408990209e+00,-4.452046635148266401e-02
-3.550401866002672602e-02,3.120564553214762338e+00,-3.598123443535729271e-02
1.950043375527826806e-02,3.159983646812064340e+00,3.045204799087800410e-03
-2.634012642868882592e-02,3.086180981742780993e+00,-9.987742609562856762e-04
2.268698531118609751e-02,3.119913056550325692e+00,-2.789151030249298682e-02
1.021452406232622838e-02,3.096483620984674001e+00,-4.689011511172977431e-02
-3.976046863188045094e-02,3.161338164750934432e+00,2.448534291342806604e-02
3.399094142252881423e-02,3.077449852463790769e+00,6.247394801118085622e-02
-2.748452472134133712e-02,3.014962263109815854e+00,2.045775262220711835e-02
-3.496682288010068834e-02,3.092737867224980786e+00,1.502580177623542151e-02
-5.718551473949185643e-02,2.991156967634764019e+00,4.643975725191729770e-02
9.321494810649914864e-02,3.044498798393391326e+00,-1.985378515211474321e-02
-4.577354694882736913e-03,3.044950443994024702e+00,-6.805790906801368299e-03
-2.370605592793929503e-02,2.990845066205015446e+00,-1.320533046075628159e-01
-6.343625143122862825e-03,2.953426769860397094e+00,1.495983565134853012e-02
5.002935778969536812e-02,2.987563624605075852e+00,4.345108675656868431e-03
3.166583871486431528e-02,2.934114561962388734e+00,-5.577478050645367363e-02
-7.074978663806821833e-02,2.941653453224227110e+00,-5.179364400585550338e-02
-1.102613444595603419e-02,2.939945225857900191e+00,5.171973225916035033e-02
-4.562992014999323921e-03,2.935017168447559666e+00,-7.555220024180274614e-03
2.044258354449053627e-02,2.926576592307977620e+00,-1.204053156773549939e-02
6.252391469123738665e-02,2.820129405701887304e+00,3.497090283017007667e-02
5.594781905488995649e-02,2.830542736947230686e+00,-8.668329566840531769e-03
2.558702519864064495e-02,2.873329779352856050e+00,-4.860202787195428559e-02
1.157207574874009326e-01,2.808523490103692399e+00,-3.822262538777298265e-03
-7.393003047459679620e-04,2.829580659841451684e+00,3.216226722021819223e-02
-2.047346005588561099e-02,2.709924974669543740e+00,-9.111960726686020931e-03
4.362671850628287162e-02,2.746755055719601657e+00,-3.910951765814274159e-03
-4.128136397274208454e-03,2.741716329636306071e+00,2.790424131862292295e-02
3.674173658962126554e-02,2.728373876447466984e+00,3.716823568680562018e-02
-1.429202798098707164e-02,2.694030290196570476e+00,3.921577453613541570e-02
-7.531522273722253413e-02,2.684283479290313856e+00,-1.286415217433650379e-02
-5.209975690175896318e-02,2.727362594991455502e+00,-8.368647390162273214e-02
3.685319202690028051e-02,2.708145222880859571e+00,7.013448476103464890e-02
5.013649878933505027e-02,2.706083999838072796e+00,-1.149911321465280356e-01
3.757355115781309263e-02,2.589062168737242153e+00,3.335703120113951703e-02
2.333436227138195249e-02,2.691090396256631934e+00,5.888153228113914700e-02
7.265267745840476785e-03,2.554522000955169236e+00,7.209934479608907584e-03
-2.848100896332561235e-02,2.600841894779291952e+00,8.826534953467764233e-02
-6.420171070654622468e-03,2.590822439815622324e+00,6.209773345810966350e-02
4.188790674589393942e-02,2.633105121237431234e+00,-2.986223078773670402e-03
-3.640469321419566306e-02,2.546479784764656529e+00,-1.387161071000268982e-02
-3.295624913404301276e-02,2.605622151951551224e+00,3.830305704063475484e-03
4.044229572186576645e-03,2.584063169693783912e+00,-9.301409186362033510e-03
2.825725270828279359e-02,2.551633884900897264e+00,-1.007212708618297758e-01
-5.679961091593228872e-02,2.504405852702589641e+00,4.843924652556028804e-02
-9.695217527814212199e-02,2.597221580573338962e+00,-6.582015865323866122e-02
4.421328630130952342e-02,2.478084656475353142e+00,3.319894951210564105e-02
3.340549046473747542e-03,2.385522060189338767e+00,4.649975245140011010e-02
-1.038180311779980242e-01,2.453617783519630002e+00,-7.769638670744578868e-02
6.247948375797227234e-03,2.407245429911406109e+00,-5.413825407288886532e-02
3.574110014535272078e-02,2.378685579854276089e+00,2.104437484492268154e-02
4.488031751493520155e-03,2.344224543875931932e+00,-1.339903021712584262e-02
3.750283316050044558e-02,2.428157515420035217e+00,-9.598179067414303392e-03
-3.769932128960103157e-02,2.483985102340096507e+00,-1.155382061366139052e-01
-9.795504666643144176e-02,2.371799120674543015e+00,-7.158656915236758997e-03
2.496053148867601740e-02,2.415473611363690321e+00,-1.654117054093136308e-02
1.444351812587313551e-02,2.428103935562580418e+00,-1.047939597014628174e-02
9.573397629032486672e-03,2.389017024105350551e+00,6.990935611632180524e-02
4.083225827190313517e-02,2.257643439999296842e+00,-4.265425848700615113e-02
3.417994148627188922e-02,2.286575139173254279e+00,5.784254720311330505e-02
5.762628424923785068e-03,2.331553594668695162e+00,-3.997388891465242927e-02
5.849103527875505748e-02,2.334299067229029578e+00,-4.123395064799666165e-02
-5.822252863375970006e-02,2.254463059657239477e+00,1.557342375890451679e-02
-7.626842309124903796e-02,2.273479656668252247e+00,-6.846403049611270164e-02
3.392744993195189775e-03,2.232178018697584587e+00,6.286481630645214536e-02
3.222200015880018198e-02,2.213493272120845123e+00,1.152920940879558973e-02
-3.301457814566437915e-02,2.247298676224784852e+00,3.280739500775432804e-02
7.909305042368933170e-03,2.251207265344806085e+00,9.084439645511747929e-03
-3.039478263587272119e-02,2.266488364644008602e+00,2.376199951876949851e-02
-7.374314171894488790e-02,2.278193499108176479e+00,-4.226539724357546851e-02
5.726906793082856689e-02,2.188174215788227350e+00,4.257504996827708721e-02
-5.257370332908153920e-02,2.172476120568497038e+00,3.381198584567136900e-02
-3.037613011825942774e-03,2.186487876403487185e+00,2.692782996778835675e-02
-9.422425159327708910e-03,2.140913347654999299e+00,-1.454043198804069736e-02
1.311365932581226405e-02,2.219791451103761748e+00,1.334065776397679905e-02
-6.039841960853900571e-02,2.153812777218033769e+00,2.605863191931464054e-02
-1.141511779959025578e-02,2.095998011907016956e+00,6.019858385678454778e-03
-1.674847983728614681e-02,2.124377606183024181e+00,-5.136728851959467684e-02
-4.027166509706862213e-03,2.080802106916510130e+00,1.523847562191763189e-04
1.037212473933177281e-01,2.092775183317522103e+00,1.724683248263032820e-02
-1.362679623466141361e-02,2.059215209193523410e+00,5.303862844386177805e-02
-1.114019002725770424e-02,2.121555409739059428e+00,-1.484239830056458334e-02
4.596359600530548761e-02,2.068121048633816628e+00,5.670687174980559159e-02
6.060777026694141867e-02,2.073732243862579150e+00,6.395183069511180263e-02
-7.773487435430470605e-02,2.117393217562604679e+00,-3.212513624458438605e-02
-1.923988883694868757e-02,2.026991856105937906e+00,-2.432524482278537389e-02
3.461810010443918794e-03,1.994556308049420412e+00,-2.521872504377490384e-03
8.786554414390910714e-03,2.015326808494927402e+00,-5.162687761346487769e-02
-5.968980683565578739e-03,1.888624300166856784e+00,2.432211513221436971e-02
4.782401891225467744e-02,1.943235233989423438e+00,1.878453839568693193e-03
-3.403402588246069033e-02,1.983018971268763142e+00,3.467068455246925807e-02
-2.398643029614154140e-02,1.889590048340808792e+00,-5.531550224050634477e-03
1.467636500817371889e-02,1.919025016439649400e+00,8.666887681595961124e-02
-1.881733779906388793e-02,1.916399102737877280e+00,1.261046985093836580e-02
4.799131105808587122e-02,1.898047907534196721e+00,-5.102392330729892816e-02
-2.160534974612216691e-02,1.869861341231471963e+00,-2.774915222412303525e-02
-2.537487837264538332e-02,1.882444021894342789e+00,-5.298956386242718863e-02
-5.110690337645006076e-02,1.873223040053149546e+00,2.437489113113320768e-02
-1.898047314081782386e-02,1.916397060655204987e+00,-5.476873133545514388e-02
-2.319991190298092282e-02,1.970518825653362338e+00,-3.676866780143214775e-03
-2.044598601221914169e-02,1.870881112581106676e+00,-7.621843236926070797e-02
3.287644089553317522e-02,1.831732272643569415e+00,-4.614199781673284512e-02
1.996722997145648770e-02,1.907906045550068042e+00,3.903739822132447877e-03
-1.338243320570448903e-02,1.793015052312828539e+00,-6.634783193134012602e-02
-7.366378932701472815e-02,1.892142899771723563e+00,3.213431341198130786e-02
-1.052438925367774475e-01,1.883639461334917664e+00,1.528864995513634813e-02
2.449341684031532476e-02,1.815266156963516453e+00,2.548820665784070488e-03
6.808278510605504132e-03,1.764901399552937900e+00,-6.295697083297616473e-03
3.919018664584530444e-03,1.738813346795752723e+00,7.022008592800341523e-03
-4.667304168634135025e-03,1.776934005092005497e+00,-6.225577382619933847e-02
3.149036901494000479e-02,1.819798245885212440e+00,-8.498454948302687148e-03
-1.305867518283554927e-02,1.783817393842638710e+00,1.334604190214385561e-02
3.363537793245602314e-02,1.740981848974587409e+00,-1.840521188024478449e-02
-1.445298316953769549e-02,1.811029570004170974e+00,-6.620308899644512801e-02
5.135501203244469126e-02,1.683882152772655072e+00,1.082915137541961594e-02
-7.605868669797660742e-02,1.770839956318448261e+00,5.434774043086945672e-02
3.918365689025922471e-02,1.708819868390988983e+00,2.490731709053851592e-02
-1.360904154547309258e-02,1.695492312409764946e+00,-6.399748147556690199e-03
-4.878425704647650768e-02,1.693913437267668520e+00,2.328683327379962170e-02
-4.250351577696800248e-02,1.640015098439975283e+00,-4.401494690157251033e-02
-5.635097739582256050e-03,1.674887932321171391e+00,-2.255985376912584758e-02
-2.036263848364172971e-02,1.704570850878538879e+00,-1.348128362822282808e-02
8.931225458056623115e-03,1.673823292016520359e+00,8.084181419371080923e-02
5.677008985114770888e-03,1.622766981095300709e+00,2.352495277710427157e-03
5.268957812255973400e-02,1.637030677339247564e+00,1.607080901781086577e-02
-1.501028419790901430e-02,1.642114380598367784e+00,-8.974862245237118924e-03
7.729891686949909302e-02,1.597845999367762726e+00,4.071109000989037163e-02
9.350922225130111828e-03,1.664280907234219509e+00,-3.423988840136908685e-02
-1.115677801592074823e-02,1.614415791601000461e+00,2.091191086536625318e-02
6.923394802139716531e-02,1.602440659650480770e+00,5.736267179004083533e-02
-3.012667144198993840e-02,1.548461019343960965e+00,2.829028758102302560e-02
1.222106233218254318e-02,1.542004872041556451e+00,7.745177832738900370e-02
1.809047790575293163e-02,1.594727504356450387e+00,-2.501353923562502080e-02
-3.578099625384865978e-02,1.558506654199709240e+00,-3.601251734114544606e-02
3.931633826187202335e-02,1.598837047605479844e+00,-1.096805601999646922e-03
2.199186109527971958e-02,1.555948178278091287e+00,-7.099462513906576455e-02
-1.318751687689501823e-02,1.608450479501499775e+00,2.675399638706071892e-02
-6.311204251722131800e-03,1.525049305323726623e+00,-2.514084060307984758e-02
3.089973469985900917e-02,1.517255547174594321e+00,-2.348110679728583616e-02
-3.325784508432565872e-02,1.582157671131886545e+00,2.039123687873244453e-02
6.126645918046624189e-04,1.486930593777237686e+00,-2.801828311270940577e-02
9.137506352382222460e-03,1.526586414789162793e+00,-1.890531291741299330e-02
2.019916965492881550e-02,1.505299898518624113e+00,-5.468378273330186910e-03
9.785056051170557684e-03,1.482138147426663721e+00,-1.365065525596147926e-03
-6.116472121953420854e-02,1.493954019265988142e+00,1.778974898312350381e-02
1.974831166775068911e-02,1.564554935005596281e+00,-2.656948179219708814e-02
-1.611022410874686159e-02,1.474988857592463232e+00,-3.867694491716668070e-02
-1.114041702391371704e-03,1.451881217700305760e+00,-2.537502649866987467e-02
8.658343464902457445e-03,1.355983950447365638e+00,5.611716662601167610e-02
4.356253149644388756e-02,1.409812515586100545e+00,-9.503510773796720879e-02
1.393231587435796691e-02,1.483626010949519181e+00,4.026960777688606136e-02
-5.648795416258289848e-03,1.455310311075225460e+00,-2.419140328641706389e-02
