accel_x (m/s^2),accel_y (m/s^2),accel_z (m/s^2)
1.019990163732052355e-03,-5.006319106335805139e-03,-9.808857462182185571e+00
-1.334839703396090713e-03,-5.693203928241217593e-04,-9.806558953425616565e+00
7.852642225138118173e-03,1.007070875295795580e-02,-9.803987113540831189e+00
5.176445354264988009e-03,-1.981472176874512353e-02,-9.793176454650772911e+00
-8.171807408107724380e-03,8.885497910733343788e-03,-9.807432065307921221e+00
9.284264656780007521e-03,-2.011774507205873683e-02,-9.793869970711744699e+00
-5.926036047294837511e-04,-5.579599201450157961e-03,-9.800647232775942186e+00
3.765236148833118936e-03,-1.106916266904536816e-02,-9.786941223486726571e+00
7.326940929734918929e-03,-5.162421097197034646e-03,-9.787931364932077827e+00
8.445713816059936731e-04,3.489597732440799516e-03,-9.805598794974246246e+00
-1.417836739936751897e-02,7.930648056212687494e-03,-9.795703484609155964e+00
-3.150773571450423815e-03,-1.246461792326428696e-02,-9.795788738671264539e+00
-5.977731026584865402e-03,1.534376599198973914e-02,-9.797073463010736560e+00
-1.359905158005763649e-03,-1.145297878130361078e-04,-9.793051707280703511e+00
5.112724661198193334e-03,-8.816895432813427400e-03,-9.804044747744880439e+00
1.543707031690973175e-02,5.375242839048398162e-03,-9.791837127090262882e+00
-3.230669831998122122e-03,1.106356920840753134e-02,-9.803452887427932083e+00
-2.055469330631947474e-03,1.466374373251809774e-04,-9.794258822862676794e+00
3.265966658997690539e-03,-6.617157922559625295e-03,-9.792473509861286729e+00
-8.224647925767155504e-03,1.048911467880862119e-04,-9.789967090419819939e+00
3.486106663885735982e-03,2.261197644151934430e-03,-9.812029004175244040e+00
1.583661316780778788e-02,1.758164856655472031e-03,-9.789036592492134758e+00
3.127787373170829669e-03,-3.537851186765824003e-03,-9.799267396558068555e+00
7.089191249996136535e-03,-6.579404900340250772e-03,-9.797949776274538891e+00
-5.434691933510574571e-03,1.181760602988758332e-02,-9.779717540490524996e+00
3.796560333482177675e-03,-1.067603187372089674e-02,-9.786686101754570544e+00
-1.410908815023276600e-02,7.129153614513581566e-03,-9.798702853331734630e+00
-1.115956958571184186e-04,7.398852427540568953e-03,-9.791250260664424943e+00
-2.257431229789929553e-03,-9.366611312410641141e-03,-9.779305367381406100e+00
-4.000972834222741442e-03,-5.882660945791615657e-03,-9.798006196680361768e+00
8.231570637353689476e-03,8.373902738382952779e-03,-9.810798091098314799e+00
1.172819936340246949e-02,8.465170130211386104e-03,-9.787157474854447869e+00
-5.251160931590905488e-03,7.948778476521020653e-03,-9.799303257142982559e+00
1.157649443861129106e-02,6.247637194848109981e-04,-9.787312547054749956e+00
-7.659083405063768675e-03,1.153304062489752266e-03,-9.785906855703901286e+00
-1.237251660678027193e-02,-3.247069919893636521e-03,-9.795802710745196151e+00
-5.845538609963221374e-03,-1.073013785253833414e-04,-9.798415242733888419e+00
-3.299053081805914615e-03,3.152930673488860136e-03,-9.791309640409670223e+00
1.360382268060957370e-02,4.082477895050005620e-03,-9.803667341444974426e+00
-2.011324975896378942e-04,-2.329219335470853673e-04,-9.793880703104195007e+00
3.370430791672704169e-03,2.114497875306990476e-04,-9.794968183074942658e+00
-7.938076586283621117e-03,-8.792356815515701279e-03,-9.799889075949733908e+00
-8.321292296202265071e-03,-1.030163670725547410e-02,-9.789894311011909878e+00
3.490467621261244841e-03,4.568705758604510100e-03,-9.800904011943213590e+00
-5.895618558904930188e-03,-6.468923356944368715e-03,-9.808923570837407624e+00
-1.130378410916150697e-02,-1.490247471168179745e-02,-9.802564470038019451e+00
-9.047616187099240259e-03,7.364524342749729537e-03,-9.802510953331946553e+00
3.224688235629422951e-03,-6.784641334744364064e-04,-9.788014684466080695e+00
-9.096824474480314296e-03,-2.091116089526783191e-03,-9.775419636008846780e+00
-2.756017984774382628e-03,-6.164006797139725408e-03,-9.805853159113869566e+00
-9.488286678085332965e-03,-5.489804365753846518e-03,-9.786875430369255113e+00
1.303823667734653989e-02,4.137796874554912113e-04,-9.792281736192414598e+00
-5.312780793067593821e-03,-6.925067925464534462e-04,-9.792482972521225904e+00
4.312220441424134514e-03,1.223285433655650796e-02,-9.784723100672755081e+00
1.099744956251990291e-03,-8.535905142669555088e-05,-9.796048273715420862e+00
-3.748159766590685501e-03,1.086468776933090068e-02,-9.785310475120841289e+00
3.700008380598798427e-03,-7.653548846954532150e-03,-9.797701510955278081e+00
3.563298403404338479e-03,-3.854187955627158806e-03,-9.806911132450933266e+00
5.004711706444527237e-03,7.046171216218532173e-03,-9.790717975057210865e+00
2.420053761814315758e-03,-2.584834709424245415e-04,-9.789135371200325508e+00
2.479180817074167864e-04,1.124198476185656525e-03,-9.788966664365830184e+00
-6.462436618528682487e-03,-7.881444382933918552e-03,-9.788771386024407661e+00
6.351906905496376710e-03,1.583601755808196343e-02,-9.801807123469234995e+00
9.290352355830025152e-03,5.701348748639323023e-04,-9.799425720202620482e+00
-1.008085834628492071e-02,-6.905652151182010024e-04,-9.784196410184314630e+00
-8.531144136472088024e-03,5.452064736872392486e-03,-9.783093466122982917e+00
9.756055065208381685e-03,-1.597031059134006864e-02,-9.807150982535034700e+00
-4.690489344537234623e-03,-4.144453916117426910e-03,-9.794933955546065718e+00
3.658560378343171833e-03,-1.346387158777467494e-02,-9.796075476335333931e+00
2.279506458048073149e-03,-9.678176155815900253e-03,-9.791941896783798782e+00
1.828664848863369510e-02,-2.592430998369486643e-03,-9.802315551907987867e+00
-7.185805122869190487e-03,-4.094991811614987973e-03,-9.795351205102370784e+00
7.740079151004826234e-03,2.114371861129953675e-03,-9.798602549086208313e+00
-4.305999118689772011e-03,8.580628725599653145e-03,-9.795324794111134992e+00
3.630026780119150875e-03,-1.126195732212272385e-02,-9.796999968736811226e+00
-4.654087844940302948e-03,1.190688003470779729e-02,-9.804375189760783371e+00
-1.679244576242415465e-02,2.104629081642215432e-02,-9.788187977515793392e+00
1.311813428296992705e-03,1.449697287306646581e-03,-9.794098991054106307e+00
-7.419517129362567139e-03,-8.813172505146237533e-04,-9.806988688442848101e+00
1.324977404352005797e-02,-1.440462351870551438e-02,-9.791869437441397039e+00
-4.607012353203147025e-03,-8.464810902877716731e-03,-9.796734604458123385e+00
-1.455559889656075044e-02,-6.593009606570275280e-03,-9.793790626024339474e+00
-5.623154629255380441e-04,-1.678917054494402997e-02,-9.795110043105101028e+00
1.695528386379629299e-02,-7.658358198506834760e-03,-9.790153591210211559e+00
1.146601827763509994e-03,-1.589511243332137128e-02,-9.801428335788612500e+00
-1.142807591342357267e-03,-8.869699935009816086e-03,-9.806046843151820624e+00
6.182238200162208479e-03,2.324267022798559459e-04,-9.796147943084806187e+00
1.397064183242732911e-02,8.565684324809112390e-03,-9.803986956485740478e+00
9.082178126119798411e-03,9.337027675856092793e-03,-9.800751874559233912e+00
-7.632657609343072684e-03,1.127296629427157124e-02,-9.798921768644222041e+00
7.383163461889426758e-03,2.954879977899794227e-04,-9.786656738251176435e+00
-9.004061829229092128e-04,-8.889838699294728627e-03,-9.801293813991511783e+00
5.926305732770262638e-03,4.850412498103546383e-03,-9.803778199708855112e+00
9.039501992556282089e-03,5.857495647293890252e-03,-9.789631460514087280e+00
-5.850271637696639188e-03,-8.968403506718836821e-03,-9.794101520986179921e+00
6.098537179311919708e-03,-6.540190310814189903e-03,-9.798524222816315188e+00
8.950476990813202279e-04,2.575658537533075543e-03,-9.778990788584399851e+00
-1.245036211738601191e-02,1.028223480774088233e-02,-9.805509480550620438e+00
1.059392901411438260e-03,2.590877520642274195e-03,-9.804603512595619463e+00
-1.755960022613652777e-02,5.244663364727669827e-04,-9.786153812240209859e+00
-1.615527715680175344e-03,-8.497644400220601829e-03,-9.794428080640576795e+00
-2.041338670562402064e-04,6.210745900281599424e-03,-9.779810213376505246e+00
1.004435062594796237e-02,-5.319675162053990290e-03,-9.795362370114606421e+00
5.397209825665089285e-03,-1.669842338112196927e-04,-9.795212371390237038e+00
-8.573952602831851413e-03,7.356569092902393546e-04,-9.805209454309286699e+00
8.756371535801754299e-03,-1.254975221176464484e-02,-9.789389854881910935e+00
7.483375664780029211e-04,5.665938840561756187e-03,-9.800668746229700190e+00
-1.014432930310540416e-02,-7.879810705356583150e-03,-9.786058200278061392e+00
-4.969164176620193170e-03,-6.530864892541850264e-03,-9.790038605990732279e+00
-8.187785320248323244e-04,5.844477920411729737e-04,-9.799297412154094999e+00
-7.680450564726028218e-04,-1.198524215544160762e-02,-9.798428786151545111e+00
-2.591963022606035612e-03,2.503794783649656176e-03,-9.808474077421086790e+00
2.350214027130383652e-03,1.764220875181643673e-03,-9.802118663249233421e+00
-1.522704760498034236e-02,6.614408247392807201e-03,-9.805827551166675704e+00
-3.419828119179761736e-03,1.040181037806665616e-03,-9.778220154525739005e+00
-5.995339108000266419e-03,-2.641925446868657358e-03,-9.799289264531047650e+00
-6.964210607584646849e-03,6.696429146279523487e-03,-9.787682531063502722e+00
6.485405003288077785e-03,7.003825060502589031e-03,-9.787739404051901460e+00
-5.247101970940673023e-03,-9.248996492072565634e-03,-9.794693749586041776e+00
-3.708313917985980607e-03,1.947871274075429690e-02,-9.795585261815201505e+00
1.324620480631906818e-04,1.969885383104496429e-02,-9.789336947624104113e+00
1.698918620718114711e-03,-1.125325911534690894e-02,-9.800454289554814125e+00
1.326535953101408254e-02,-8.783041527917130262e-03,-9.786970597345000300e+00
-1.317686929010576831e-02,3.283776599856335146e-03,-9.816921649565463426e+00
2.773578065697727274e-03,-1.441077777670709539e-03,-9.784035389463753063e+00
6.008275084081907656e-03,5.729598185534394948e-03,-9.786688895404235922e+00
-8.388497598325040522e-03,-3.848101758947764049e-03,-9.795983655235726673e+00
-5.066133376064075287e-03,9.953887658665604501e-03,-9.796954161651568072e+00
5.017803347972363097e-03,-4.081064616884315897e-03,-9.788551742186818672e+00
-2.405933618285607031e-03,-4.414565866507788009e-04,-9.794962081620909089e+00
3.458381146700598673e-03,-4.117452342373494750e-03,-9.791971347237158341e+00
8.184739502338589032e-03,1.295898631625308451e-03,-9.790339314024388173e+00
-4.945047369689291490e-03,-8.331152126561099797e-03,-9.788052233320671647e+00
-1.533700464883729422e-02,7.802380827452325661e-03,-9.785078038115653243e+00
6.665045639735806514e-03,-7.913551658837910882e-03,-9.794962779751632098e+00
1.915932114472662434e-03,-3.759241319287196480e-03,-9.821075970143727574e+00
6.212066531330905084e-03,-1.503953971643973327e-02,-9.803125330460705555e+00
-4.944786954134646785e-04,-1.751542438463738263e-02,-9.796067186648359737e+00
5.614587183961128325e-03,5.804750418263124670e-03,-9.791369921974890644e+00
8.276201821170276265e-03,1.243566731069590918e-02,-9.778535994499399919e+00
8.060097380714077026e-03,5.752193817820810268e-03,-9.809800675416582294e+00
1.507623032274230113e-02,3.097077489851102119e-03,-9.800673998116714358e+00
6.366746788940584253e-04,-1.440256900281251806e-02,-9.799028828061855378e+00
1.430064025354566004e-02,-8.150466979379161411e-03,-9.793724374822504686e+00
8.111564070880513191e-03,-1.437235968040446836e-02,-9.790487002356210056e+00
-2.662514654934189026e-02,-1.406730753806539717e-02,-9.794476478119166885e+00
9.740796911026366675e-03,9.846973745207628428e-03,-9.813408761648890533e+00
6.520260038712194853e-03,3.218750129389943895e-03,-9.805393824155524740e+00
-5.660621136592232545e-03,-1.122739859671523406e-02,-9.783341121116963635e+00
1.512525196985965194e-02,6.692812131275048797e-04,-9.803368415785085332e+00
-1.182621171519659432e-02,1.001495018934420861e-02,-9.807980888275997344e+00
-1.161503478041970953e-02,-9.320417588638524320e-03,-9.798179073821852825e+00
-1.361880722432807144e-03,-4.612445337553610671e-03,-9.783132099833741435e+00
-3.908718960851247787e-03,-1.062767184272541895e-02,-9.805697231431416583e+00
-9.879452528419188986e-04,-1.401901428011225739e-03,-9.796056646089292386e+00
3.175755988526460499e-03,4.333513486440726883e-03,-9.813761011368066889e+00
-3.825016519314961786e-03,1.266045150621136154e-04,-9.820202623846679302e+00
-1.602200395026021421e-02,-1.030592454482317545e-02,-9.806316705145233570e+00
-1.982336088767443390e-03,2.549910573725426392e-03,-9.796732216272568294e+00
1.279118519694435845e-02,-8.271757066816983611e-03,-9.800747915226265761e+00
-8.556390729106928134e-03,-9.154035307332676272e-03,-9.798772247992433293e+00
6.262853615115908379e-03,1.656820458165502753e-03,-9.792289086188743497e+00
2.328685816161072254e-04,5.423143922606002941e-03,-9.805102108160458130e+00
1.195383945114088069e-02,-9.946407009754955082e-04,-9.785563454646293735e+00
-1.856898542142991840e-02,-1.169165628339979834e-02,-9.812714224055465451e+00
-2.947818948438494027e-03,-3.202194469778257314e-03,-9.788185008421558919e+00
-1.544383418673148968e-02,-2.004636852533395186e-03,-9.798137354871171212e+00
4.135726524800933772e-03,2.588356079511546209e-03,-9.791464918436993514e+00
8.306696272725223179e-03,1.139520315907619451e-02,-9.802220725789192457e+00
2.465797748365667220e-03,1.581301782736568157e-02,-9.803983452701009682e+00
4.996984377267474527e-03,6.004236436678222696e-04,-9.795838451999916430e+00
-1.313566779533404576e-03,-7.214739729962413826e-03,-9.792334034747314675e+00
-5.174027255795934227e-03,3.018754507133991280e-03,-9.808188448178174923e+00
-8.473545936067403139e-03,1.497253930305679969e-03,-9.795058919100975814e+00
4.002656758612711980e-03,2.477750853024463591e-04,-9.799390094397670836e+00
1.199957520500788410e-02,3.758861986054191050e-03,-9.797198172305414232e+00
-1.307155961271175889e-03,-1.112336738278984181e-03,-9.804389082150413159e+00
-6.179459557537358289e-03,-8.441860512995743790e-03,-9.795007092898055490e+00
-1.955562080577439438e-02,1.805247401075163157e-03,-9.795153103853719401e+00
-1.626986930217106178e-02,6.712460405289746163e-03,-9.799114307934592816e+00
-5.653374660201909273e-04,1.105568018644660817e-02,-9.799084256064222842e+00
2.410516184109552391e-03,8.994994321491195724e-03,-9.798229385333913299e+00
-1.088457710059534400e-02,-4.278323145791264261e-04,-9.792989574122701768e+00
3.027177539324102558e-03,1.293106215017230613e-03,-9.789206288485710061e+00
1.865637231111834816e-03,9.664218882771918526e-03,-9.796039986070468331e+00
-8.169925723781197927e-03,3.040521027390173485e-03,-9.802983160763400150e+00
-3.938822352354021637e-03,-3.002242225673672042e-03,-9.806429539447300670e+00
-1.692950932994856383e-02,2.518393153102069931e-03,-9.793362002340407102e+00
-5.053331687375637628e-03,9.896079073616792683e-04,-9.805279540472971789e+00
2.483824788666810605e-03,1.082195870755773941e-02,-9.790901469806945201e+00
-6.559240580918921509e-03,-4.397816496453278365e-03,-9.776803528056882797e+00
3.435033939113651524e-03,4.506744204209169567e-03,-9.807217994447711362e+00
5.547897767301169202e-03,-3.716185135855043682e-03,-9.783635709281398363e+00
-4.107301804148715332e-03,-5.486179154286445047e-04,-9.793156260004645119e+00
4.184516528185292482e-03,6.684532793728150020e-03,-9.780736728752904341e+00
4.542072063664265996e-03,-7.827023909759150619e-03,-9.795941893286007840e+00
1.899246848703284307e-02,8.412096067747711070e-03,-9.793188307471670129e+00
7.066434057377785592e-03,-1.663180875551790311e-02,-9.793384166108277000e+00
8.451099429903590268e-03,1.490660658643219207e-02,-9.786649719263836644e+00
1.013077403192735176e-02,-2.680747078629435679e-03,-9.785198338138378915e+00
1.471776448779561070e-02,-5.069840864720810518e-03,-9.792363886363450121e+00
-2.066548674338739011e-03,-3.394296610052532134e-03,-9.794133845195679200e+00
-8.592685399357775228e-03,2.578740408975989384e-02,-9.789087008492526110e+00
-1.290557877993468022e-02,9.802956016057768653e-04,-9.808756663094992945e+00
-7.606438254565280836e-04,1.463999491028464620e-02,-9.803705844921397627e+00
8.985337709858621028e-03,-4.193420827033490089e-03,-9.787289175407599018e+00
2.967377498384215942e-04,-1.159812974550863095e-02,-9.818738963686984178e+00
-6.458965011574443332e-03,1.277451731967339105e-02,-9.801212271082350824e+00
-5.577227132896268348e-03,-7.634859075160810651e-03,-9.793669253289642995e+00
-4.775715462100495710e-03,4.102708251278366219e-03,-9.805649255564027555e+00
-6.332998033586599920e-03,-2.030745580873210675e-03,-9.786322307491357009e+00
1.666811871671285529e-03,7.012308064404642292e-03,-9.802318269095907866e+00
1.195176016582219156e-03,8.896149436080566519e-03,-9.803566752727606470e+00
-2.648425053548170496e-03,-8.310288026747846436e-04,-9.799336504572185191e+00
-8.841187153831965096e-04,1.217740648777658127e-02,-9.798869499400892025e+00
2.851820997279741563e-03,-1.022823680463852414e-02,-9.789269488967182298e+00
5.236941679286785840e-03,4.257435654519400869e-03,-9.795750805648197002e+00
-1.817633867011438434e-02,-4.627795913224112302e-03,-9.782116562833763851e+00
1.179854428930844287e-02,1.225684837481011598e-02,-9.800132647977715550e+00
3.948926143041941962e-04,1.157372756801502284e-02,-9.792097376746728088e+00
-9.059781923339744331e-03,6.536111921219855438e-04,-9.787143881776877663e+00
1.780456107422060102e-03,-1.800641480502441702e-02,-9.793735973232475800e+00
5.987825390381874835e-03,3.532976542036624090e-04,-9.791853947847080519e+00
2.255732498081548104e-02,-2.472610389669103494e-03,-9.792507971551376755e+00
-4.434621444836885779e-03,-9.747239546489304754e-04,-9.788193278479255355e+00
4.958194887014623180e-03,-1.170380211419140039e-02,-9.798062486761818235e+00
-8.587837244013806631e-03,-7.594845881937041000e-03,-9.796391663749114187e+00
2.508032935379950028e-03,6.832330582878547685e-03,-9.799221773660287127e+00
1.938901710558491205e-03,1.298391296417882512e-03,-9.812510672001813816e+00
3.749883098750786924e-03,-1.235513829843858493e-03,-9.778969645717980441e+00
2.955233038338099440e-03,-9.719483831843315699e-03,-9.811441073235505073e+00
-9.866621040957836847e-03,-1.335025303746088798e-02,-9.802218066900383775e+00
2.008869552388166738e-02,-2.473238057267235224e-03,-9.791249009888083776e+00
3.797589421785027997e-03,8.202949523583507457e-03,-9.803374582155690575e+00
1.710516802932126581e-04,3.865774947354583442e-03,-9.799799860519069483e+00
-6.598363672228406938e-03,-1.044840668218544738e-03,-9.797235736211916901e+00
-9.044450966985749171e-03,1.961056307290729838e-03,-9.793815647310259109e+00
-9.843523570975754380e-04,-3.755683429942846194e-03,-9.798399202823786069e+00
3.776711684337929077e-03,3.631011867346223992e-04,-9.796865064315849025e+00
1.199459080860885637e-03,-7.093338961487363932e-03,-9.775252802729017532e+00
-1.322853243714904210e-02,1.128075614695331526e-02,-9.798729589072079804e+00
8.408057162717124527e-03,-9.729379241132717765e-03,-9.804562663164704261e+00
-1.172520148967010935e-02,1.324045512520128373e-03,-9.783812338463214076e+00
-8.320982089253607314e-03,-3.364854558055564455e-03,-9.807799997661925673e+00
-1.030275616619582071e-02,3.844939334023463745e-04,-9.798321484071978560e+00
-1.333745333564985772e-02,1.273867235526654311e-03,-9.783013016818992824e+00
1.015789376115113461e-02,1.006573324934310031e-02,-9.791927387771155011e+00
8.134565175635736708e-03,5.671173556105920700e-03,-9.794030649179651604e+00
-3.895840391129216929e-03,9.199929322936449202e-03,-9.800095241919759559e+00
1.839982101329868530e-04,4.810728229344606900e-03,-9.781330815157609493e+00
-3.862649519593057933e-03,-1.272275184676052457e-03,-9.787684836253578879e+00
-5.042684642082002552e-03,-1.254987978263136413e-02,-9.798045573566712463e+00
-3.498741056306505122e-03,-3.481639140933296414e-04,-9.801752809898641061e+00
-2.666618417850912231e-03,-5.597439572622720134e-03,-9.799891598774436829e+00
8.913557666019110426e-03,-6.449937750840162385e-04,-9.797764397735063469e+00
1.393836935199119394e-02,-1.481475613375884265e-02,-9.803841442021052899e+00
4.417427538134560162e-03,1.351905238728891810e-02,-9.805570531808665891e+00
-1.675624175978750359e-03,1.102936083499058469e-03,-9.786742162768597098e+00
4.128441123383655995e-04,9.988486221746379484e-03,-9.805923956987955492e+00
3.014511796618703937e-04,-5.990359300115468723e-03,-9.800278400012905067e+00
-6.049226031929419607e-03,-1.038492811632038028e-02,-9.800492345322671994e+00
-6.307215022162358450e-03,1.110947317983987208e-02,-9.790872402027451571e+00
-5.633813948479808251e-03,-7.775588256987854552e-03,-9.790264951069513444e+00
8.102295453342176976e-03,2.658428220599325705e-03,-9.804422242295851575e+00
-3.735189467469238970e-04,5.764739451595963377e-03,-9.810979217742067604e+00
1.606062271297052646e-02,3.657418406349658303e-03,-9.791225760127836963e+00
-2.664942652167387373e-03,-1.021911676390837263e-02,-9.775022096037993435e+00
-9.945066485443437854e-03,-1.103467185994553429e-02,-9.794330718531172764e+00
1.175945607878954753e-02,-4.315511047599789735e-03,-9.796862175957148366e+00
-1.377212952928705963e-02,-3.992743237094790835e-03,-9.792139233197005410e+00
6.100667030125042807e-03,-5.364167309500077023e-03,-9.797477882596053789e+00
-1.904498730881549638e-03,-7.461331740662622246e-04,-9.795421727710039050e+00
6.869202910012616944e-03,-6.868231943202282586e-03,-9.800482717623118845e+00
-4.832422426229623924e-03,-1.493121246076881993e-03,-9.791238712664817712e+00
-6.733628226327420530e-03,-1.001701150706786614e-02,-9.798698785724416993e+00
-5.884119093933530380e-03,7.319853760629001053e-03,-9.790745488877702130e+00
-8.185346304003854670e-03,2.693620122938549400e-03,-9.801747890493613724e+00
7.187991079527448340e-04,8.579050983173304445e-03,-9.797006920991758960e+00
1.450250725178939618e-02,-8.161674470448859395e-03,-9.796023784605552009e+00
-1.699992439668492755e-02,1.680205549137094674e-03,-9.806038825163936323e+00
-1.300560654166424412e-02,-8.993306623088585458e-03,-9.783273956320989839e+00
-6.502373858904954632e-03,-3.088838655237282401e-03,-9.795048550344860772e+00
-6.677720954351581105e-03,1.881803254512236234e-02,-9.791095187114974507e+00
-8.788564987617214150e-03,-4.341485007210299160e-03,-9.795694410707159960e+00
4.596833190301618903e-03,-2.065354128975265338e-02,-9.795693682049700257e+00
2.011299471689072759e-04,-2.529530070382768944e-03,-9.795845743139521389e+00
2.263346132821746765e-02,3.054280845726329609e-03,-9.812272338468645216e+00
-2.326238188277429675e-03,1.066252796787440192e-02,-9.785727299077294106e+00
-7.817917519722964934e-03,-9.106410819350173325e-03,-9.798166967076468836e+00
7.412316838912710523e-04,4.077381345518584811e-03,-9.784413483153699076e+00
1.081137577458522839e-04,-9.063772231596131700e-04,-9.799286381707663196e+00
2.048256192343548242e-03,-7.768335477609502639e-03,-9.803146689917820567e+00
9.170637512747496084e-03,-9.301169926339752708e-04,-9.785632088987490818e+00
-9.951785286965280633e-05,-8.586470362273404544e-03,-9.792109413885443203e+00
3.320323494422229961e-04,2.262653901147310305e-03,-9.793915895585035614e+00
-1.814396362513259016e-03,3.955736469423992360e-03,-9.780399569247466118e+00
-1.811056618499003873e-02,-7.490630937199260764e-03,-9.794490352817049938e+00
-1.206239050597051644e-02,-5.969009984723306315e-03,-9.778743409333822356e+00
-6.604798253609740245e-03,-5.880073696341861327e-03,-9.799720555367031238e+00
5.819801085346581679e-03,-4.826818050716030414e-03,-9.807918828317131243e+00
-6.896687023206129596e-04,1.013896924997160533e-02,-9.783783791833776888e+00
5.389479787181475356e-03,-9.856507683878169834e-03,-9.792265138880027919e+00
3.871810315843881699e-03,-8.337829985806790092e-03,-9.796272700215826745e+00
4.128140979292137594e-03,-9.945168623199942062e-03,-9.789246485267836917e+00
2.759037878169002351e-04,-1.722092811390001999e-03,-9.798210215377419985e+00
7.187274079608341193e-04,3.754229306286952818e-03,-9.794400041483948272e+00
-4.782465290761325565e-04,1.304648500217486101e-02,-9.795597260368198889e+00
-5.073198134004910584e-03,1.153380520466321980e-02,-9.796191167019173918e+00
3.455721697538033117e-03,-1.949647101760456930e-03,-9.797049927322710516e+00
-3.594906953963844694e-03,-1.453008744370980904e-02,-9.788683577840558314e+00
-2.377907654450697912e-03,-4.458086355870534423e-03,-9.798577121386831124e+00
-9.288672646967609248e-04,1.761481330122210238e-03,-9.783200532321455256e+00
-8.082193202940811394e-03,8.973743798121789315e-04,-9.803111453430222610e+00
1.526916352835971762e-02,-6.521750549597350906e-03,-9.784663025057080077e+00
2.363273714892084702e-03,-2.674534412084856368e-03,-9.792609338581476308e+00
-3.539936423382063387e-03,-5.543294033404472590e-03,-9.799424181634671882e+00
8.978451449317369475e-04,5.187975648719629282e-03,-9.820852971873067716e+00
-1.598117988489490549e-02,-3.048582226746073508e-03,-9.802008806056232260e+00
-5.492515995791306949e-03,9.160039991690563030e-03,-9.801944071542372683e+00
-5.260626765894574342e-03,-8.277539849820502154e-05,-9.787498346980671116e+00
-1.339520344495387805e-03,-6.872813430519573302e-03,-9.794710817947079207e+00
-7.272580736911156939e-03,1.490878639141008863e-02,-9.794514054980586693e+00
-1.287982545763013097e-02,4.109434163521877813e-03,-9.798089730889474325e+00
2.194980237199962384e-03,-1.008822785984841465e-02,-9.799314021205351111e+00
-4.397160281575347891e-03,4.839561788536894671e-03,-9.803311479125291328e+00
1.839845317396461913e-02,-1.047669245271636192e-02,-9.807381519760202337e+00
2.241855568535949285e-03,4.746185742013971955e-03,-9.786591316623182379e+00
2.363521583326772674e-02,-1.774217023260250522e-03,-9.789924454705710488e+00
1.855035956704554224e-03,-6.457094840584673076e-04,-9.785740259654732043e+00
-6.933180942354930576e-04,-6.455733509150718072e-03,-9.781482920085551314e+00
-4.957408701702457378e-03,3.546835379399537313e-03,-9.786510351316312750e+00
-7.939273342751806267e-03,1.437803911033810542e-02,-9.782048010541677385e+00
2.518136437484214465e-03,-5.528662171321993210e-04,-9.805262818337075359e+00
-7.717143311505149025e-03,1.004984055552912009e-02,-9.795211234661911348e+00
4.413173683588846713e-04,-9.477987844395702882e-03,-9.799012226583245777e+00
6.916799696608257574e-03,-4.023087134483388679e-03,-9.793639982003853106e+00
-6.543088728456087841e-03,-4.850099780987510850e-03,-9.791567086346855575e+00
-2.051429350757517922e-02,-6.517874019841968236e-03,-9.799032855168308132e+00
-4.165040995943059422e-04,-1.613881961366853829e-02,-9.781800861028834504e+00
-3.723630822886089473e-03,8.686760672343041452e-04,-9.791383036120299366e+00
3.065809996232729626e-03,-1.489751771389270698e-03,-9.794413018190791576e+00
-4.361595455361043372e-03,-2.176747911686718884e-03,-9.792824426832821061e+00
1.403679634364351364e-02,-1.663324665980513888e-03,-9.800382902127514839e+00
2.399759127830878268e-03,-1.148200915358581382e-02,-9.788522663440058835e+00
1.295742955782199814e-02,-9.392431823953585612e-03,-9.798887294327162323e+00
-4.316318432323539359e-03,-3.605734481941149944e-03,-9.795853532632923688e+00
-8.789848857511170857e-03,1.624891878817336099e-02,-9.798223409016525665e+00
-5.847518305342976064e-03,3.456998721944785826e-03,-9.806915115504821756e+00
-6.849671808131190323e-03,-2.751362709924514392e-03,-9.794070355402116235e+00
3.892418294927567097e-03,-1.900833496926861155e-02,-9.790129053156411132e+00
-8.964226361275690405e-03,9.287765197669497000e-03,-9.807039392918683873e+00
-8.473599651183086681e-03,-5.011167128217163848e-03,-9.793289473080859509e+00
-2.852055669843819342e-03,7.772302917171323945e-04,-9.795364625099974631e+00
-1.504724639856518283e-02,-5.481746377429682140e-03,-9.782222494710449467e+00
-1.290672335296227068e-02,-6.572453737451384483e-03,-9.787658051947568438e+00
1.627862720946512010e-03,-1.103391721210786628e-03,-9.792295806223515697e+00
2.688132182854947958e-03,-5.807055041711047146e-03,-9.797581140230947838e+00
-7.489726910480884632e-03,-2.379027859327320811e-03,-9.800756277660799043e+00
1.558391930767083749e-03,-4.429455627404454456e-03,-9.797296974492210708e+00
-3.377996211283536537e-03,-2.416702619966112041e-03,-9.795005264701414305e+00
3.564433092080231992e-03,5.344888959812305919e-03,-9.802934768557834744e+00
-3.648047703842642771e-03,1.164906714513688248e-02,-9.798533906996500065e+00
-5.652283922367229603e-03,9.039189024242014203e-03,-9.784458189520446325e+00
1.110244619668645421e-03,-9.368828376023799823e-03,-9.785197415675440880e+00
-1.101753812930323859e-02,-1.927232691311060991e-03,-9.789866510667932786e+00
5.250729446230304430e-03,1.665881210084396366e-02,-9.791887185374324787e+00
-1.485967499841862709e-03,6.062280003907269442e-04,-9.791050048637094605e+00
-3.813242160510186413e-03,1.018273670823650369e-02,-9.814012576238352992e+00
6.331133924773584172e-03,-9.526943091546511214e-03,-9.805458564978776437e+00
-4.179184179617631383e-03,-5.924089499461070163e-03,-9.794085850540730220e+00
-9.364781947310982235e-03,3.982156019438419341e-03,-9.795906374488103197e+00
4.797490707840148215e-03,-1.146264552303767614e-02,-9.792482598527575632e+00
-1.169093636561579358e-02,-1.571686381494690268e-02,-9.808746466051379898e+00
-2.247733278220691571e-04,-6.576041608191942472e-03,-9.807182934716028200e+00
1.549367595290583252e-02,-1.497036865123015613e-02,-9.795197620667702054e+00
1.156247039738453330e-02,-8.997509372749453588e-03,-9.799721097292263039e+00
-6.110020556473306531e-03,-8.240948597700322939e-03,-9.804397543419705485e+00
1.424296734342346375e-02,3.362835526443164885e-03,-9.791008609861671985e+00
1.128815826628869895e-02,-1.177656545306830609e-02,-9.797126478368378244e+00
5.004849819502704862e-04,-3.704656872131637489e-03,-9.807602321259489386e+00
-1.109682347581635552e-02,-5.192518854968612534e-03,-9.801671706953319685e+00
-4.971487336068568068e-03,-3.861639253908176212e-03,-9.796709162047495312e+00
-3.743957543965200589e-03,-1.154842116203338076e-03,-9.782794617337954080e+00
-6.191264990068488273e-03,-8.998395051679640780e-03,-9.793868805411721112e+00
3.712458693419994028e-04,-8.722710529710936411e-03,-9.796198204849174473e+00
-1.695161950584430505e-02,4.536589867233289789e-04,-9.802419004510436906e+00
-4.816386291616977285e-04,9.080723245923365619e-03,-9.789699315578067385e+00
-6.472211055177425629e-04,5.246215524547233160e-03,-9.792116036441587568e+00
-2.005339238733450623e-03,3.230018395116452008e-03,-9.800406061245531930e+00
-9.932513917563846537e-03,-8.315086148070544502e-04,-9.794410000075282952e+00
-5.737960565477110732e-03,-6.199068839252701475e-04,-9.793481133749219580e+00
-1.341745761136627774e-02,2.640687815983799695e-03,-9.796104984487678635e+00
-7.943072012870048149e-04,2.709486562921675952e-03,-9.802963738136606153e+00
-3.686072479594305982e-03,-1.139407275848911905e-03,-9.795349090646174872e+00
5.666788644495817685e-03,-2.892670507228460152e-03,-9.793047255494972347e+00
2.920224073493832458e-04,-7.860519637369083783e-04,-9.794967901109519204e+00
1.298227872600229635e-02,-7.140122679380770873e-03,-9.780713383217188195e+00
4.510541601171232443e-03,1.504328999628539104e-03,-9.791932835363709842e+00
-3.213395755482086145e-03,7.083672969420773749e-03,-9.796814386098645855e+00
-1.941409781630125050e-02,-1.458915705969937159e-04,-9.793609118585022699e+00
-9.926974870913653562e-03,-3.741341628291075874e-03,-9.795649967036109018e+00
6.694240848025402243e-03,3.324994499165290218e-03,-9.805664654114499612e+00
-8.194270748999333068e-03,3.109820882861607724e-03,-9.799186680834019114e+00
3.795783352015899559e-03,-1.483979595207108280e-02,-9.795394759345555258e+00
5.646337119124517079e-03,-1.062129936363986372e-02,-9.799635409868811209e+00
1.813482440902805960e-03,-1.058809389048078788e-02,-9.787018393224654389e+00
3.694675879701797214e-03,-6.661225601804574709e-03,-9.791621259483889617e+00
1.624979050189259352e-02,1.248047369691672806e-02,-9.798805236251002526e+00
-9.754197445077498335e-03,-7.658605875531494279e-03,-9.804611988124824151e+00
1.205253607874993624e-02,-5.351892015490272931e-04,-9.787884604588054316e+00
9.985787657703542111e-04,1.055263939849037866e-02,-9.796280008766231617e+00
-1.132407189387866055e-03,-1.187363761384898492e-02,-9.804978877092006329e+00
-5.913630682701573457e-04,-8.325922482641124472e-03,-9.794859261902711722e+00
1.125151368504877236e-02,-7.900982410250820265e-03,-9.804194305233179918e+00
2.881117708430712843e-03,-4.145432102641415442e-03,-9.806433173261932978e+00
-4.690012956328323303e-03,7.601514399233716586e-03,-9.794052365058295351e+00
8.660008295608903964e-03,-2.795505023990447428e-03,-9.786335014429610624e+00
-4.776102927095610302e-03,-9.781022880099457181e-03,-9.798987872792093157e+00
2.790733464493962493e-03,8.508721115199723148e-04,-9.796271209659272117e+00
-2.039347637007496179e-03,-2.168647260778833533e-03,-9.814537887562581275e+00
-1.389207758712787677e-02,3.052096188415706450e-03,-9.785953562519805971e+00
5.354735648501366546e-03,-1.188805745751188260e-03,-9.795375583548596055e+00
-2.668263314465399178e-03,-9.295053026244368827e-03,-9.798393114031952678e+00
-1.582228091865155216e-03,-1.428238525596899067e-02,-9.796493754074306892e+00
9.888118459929953058e-03,1.535912252777526512e-03,-9.786395736223983732e+00
-8.017535056325330797e-03,-1.674904139661999043e-03,-9.770329336319024449e+00
3.485792625464682361e-03,-2.450972778000850422e-03,-9.785153884086904341e+00
-2.518246192400571196e-03,1.191456568556596360e-02,-9.789457757312606034e+00
-9.754950723009086708e-03,1.400033191331292570e-03,-9.802436405897188010e+00
-7.653666557331835138e-03,-7.265436430310424562e-03,-9.794357970276307057e+00
-4.269578139734739840e-03,6.950231329007565406e-03,-9.799785543009765121e+00
4.583821421590809214e-03,1.601088377493947636e-03,-9.788178125045071454e+00
-7.267581419310852053e-03,1.242521949524844418e-02,-9.782124670335118566e+00
3.003193576987321992e-03,6.168343185187953256e-03,-9.794051164331294856e+00
-4.619233861786707467e-03,-1.167839158948618186e-02,-9.793522936476271923e+00
7.856063547009559112e-03,5.562993684419693247e-04,-9.803350305483441218e+00
-3.400334143272230100e-03,-8.857780392424137450e-03,-9.811038093044404107e+00
6.235393423775161328e-03,8.335564156541592357e-03,-9.800313910909816073e+00
1.119274630670058154e-02,1.211870955490779340e-02,-9.803400139990612772e+00
-9.184623782887096563e-03,3.233174608216611741e-03,-9.792681231508931106e+00
1.125821403276134079e-04,6.676055696494974726e-03,-9.796697112145443143e+00
4.179020447629816330e-03,-7.946588335090843183e-03,-9.790695992660973346e+00
1.241955797143686445e-02,-2.299028333867689840e-03,-9.791205285278572035e+00
1.257316235824521065e-04,-2.587403634934632053e-03,-9.794313442481261234e+00
-3.825891850940380326e-03,-5.784438993221148809e-03,-9.783079473296904638e+00
5.563256524154669251e-03,-3.285695235352819633e-03,-9.798676972860953072e+00
-6.153099908732985977e-03,-6.180724903497628563e-03,-9.796573447034896631e+00
9.620245579005377856e-03,-2.921604376025855113e-02,-9.792509037392312266e+00
-8.652771275903402629e-03,2.525382130264600816e-03,-9.796628343088308100e+00
1.100330919377231868e-02,1.604862562695949599e-03,-9.792351946294543197e+00
-7.768517271968369657e-03,-3.622321348714797450e-03,-9.799734031250000754e+00
8.435574765925808391e-03,-1.041738772390857388e-03,-9.791249929354806980e+00
-4.284136482671368172e-03,-1.446854088761791515e-02,-9.810508513143529896e+00
-3.482315419889811547e-04,1.228564116521102534e-02,-9.771872709000112067e+00
1.197804004003026959e-02,-1.261797050869535065e-02,-9.791243925280154414e+00
-1.047800915691017359e-03,5.478332351616578555e-03,-9.793598532153211522e+00
-3.888127462599905767e-03,1.714391946355719662e-02,-9.791380706361785258e+00
-3.864163778091213742e-03,-2.260078120442902180e-03,-9.791918921297590117e+00
6.868922309029690254e-03,1.703788607756280766e-03,-9.780105568929306159e+00
-1.475337578784016029e-02,-6.391069419136964809e-03,-9.793642258934299960e+00
9.551515212021051762e-03,9.255542308500563919e-03,-9.784465560628191838e+00
-3.850448083994634837e-03,1.284207058171363963e-02,-9.802755500355470275e+00
-2.936655151943186586e-03,1.328661683034627417e-03,-9.796534532019915531e+00
-7.439564108846778018e-03,7.433990271185796604e-03,-9.784511490132237199e+00
1.033508613722842334e-02,1.119968653900279242e-02,-9.795961631475961440e+00
2.248080903382062429e-02,1.193991420834881415e-03,-9.788368621529025759e+00
5.396132643680467099e-03,-1.259654863526919917e-02,-9.795169025709553168e+00
2.036222437223415751e-03,1.490134323615476507e-02,-9.804426878279153712e+00
1.210332106958962768e-02,-3.131789451022222448e-03,-9.798683223611208248e+00
3.792910697544227272e-03,-5.256074552421038069e-03,-9.794448250521421429e+00
1.869602254041918474e-02,5.691504297389168854e-03,-9.793595817610198040e+00
1.178467056223457023e-02,-8.054369764932602094e-03,-9.786947010213445708e+00
-4.582490047312293667e-03,-6.822266783494640267e-03,-9.793280561672073503e+00
-1.614669089323682565e-03,-4.213150086072862087e-03,-9.800449225805921927e+00
1.068480571596967799e-02,-4.446573793074332440e-03,-9.795487665571300795e+00
5.619571123063322841e-03,4.452503493838770240e-03,-9.788234578043276457e+00
-6.590066831901378840e-03,7.692406565955082869e-03,-9.780650813006094069e+00
2.787089012916803884e-03,6.844591136793353250e-03,-9.795185450195432963e+00
2.665033586217720445e-03,-3.053396363454848571e-03,-9.781904101224331072e+00
1.074240524800156721e-02,-1.506467571167137941e-03,-9.797801361688954103e+00
5.209997964955857472e-03,3.811330013247754382e-03,-9.790368451685937501e+00
7.404531017955093795e-04,6.025253245939219023e-03,-9.797037771422395735e+00
-1.708961985647029433e-03,-4.756708261507239265e-04,-9.810122366793828874e+00
-2.268890839775584978e-03,1.988655637576118400e-03,-9.791979922621695920e+00
1.623650464992441173e-03,1.531578767374859422e-02,-9.772382509481417401e+00
-4.737900929650305272e-03,-1.933001481464607929e-02,-9.795764849657455642e+00
1.840340050809961825e-02,-9.029800250755826846e-03,-9.793609973847033245e+00
3.765920451691516079e-03,1.870357947735317968e-03,-9.788078000192010464e+00
-4.167763470835077200e-03,-2.147884636540747707e-03,-9.802228680259476690e+00
1.281538073110335789e-02,-9.304439686334679480e-03,-9.791610302010385070e+00
-7.649998628310855468e-03,1.032927649032480862e-02,-9.804053911575268287e+00
-9.379742614970015824e-03,-1.115039367538518504e-02,-9.791907722588964802e+00
-9.245443850889090848e-03,1.202720095536336832e-02,-9.787616933188722612e+00
-1.081753383145336173e-02,-6.523420153229798901e-03,-9.792022793483388554e+00
-3.498257705271653421e-03,-6.081486655043179951e-03,-9.798884983391664250e+00
9.389822112743532317e-03,5.327472508415443189e-03,-9.798281820220941185e+00
-2.944460471656387864e-03,6.719372403893172745e-03,-9.793925757631869899e+00
5.644861903832164643e-03,-4.415184981626303629e-03,-9.801335628450303261e+00
1.778013791617369388e-02,-1.779636500532003887e-03,-9.803961270120002069e+00
-1.058338202978718282e-03,-2.841965849855443513e-03,-9.806188395044678430e+00
1.491518561097316189e-02,-9.092364934917197827e-03,-9.783782010307596977e+00
6.711654444642844303e-03,-1.247952974011711869e-03,-9.799042352836107028e+00
1.145944105711825187e-02,1.528009386731010201e-02,-9.797330857913729929e+00
7.439183182137172785e-03,7.399831153621995276e-03,-9.791155909084613640e+00
2.442744851505683403e-03,-2.194891810534896175e-03,-9.794935930615670472e+00
1.222020312459292345e-02,2.051807846762818393e-03,-9.790473129678174402e+00
-3.329489147455041813e-03,-3.205194229217874467e-03,-9.797183635549171044e+00
-5.978381423523203113e-04,-4.244955631567241122e-03,-9.792661492162631376e+00
-6.450626437994173151e-03,-3.693929257672908060e-03,-9.800385164395445159e+00
-1.190315512962298282e-02,-3.671086672287664394e-03,-9.806578298001140226e+00
-4.192059155411792526e-03,-7.899115581012033580e-03,-9.780911662549684138e+00
3.352139568482997295e-03,2.093758231876410251e-04,-9.801328263744133906e+00
-4.441108980452109292e-03,2.225633056539734998e-03,-9.786730540638137299e+00
2.597278478878194217e-03,6.512336418428415694e-03,-9.793062418408229775e+00
2.414036103540854756e-03,5.722034354905895445e-03,-9.787108326364213795e+00
-1.486897140640099091e-02,1.357210980469667231e-03,-9.799930082667305697e+00
-1.338254577093585772e-02,2.085108396826577688e-03,-9.797237356880271975e+00
4.339027595849407433e-04,8.309010122250238065e-03,-9.788336497260004876e+00
6.644227180347775721e-03,-2.724511292059963227e-03,-9.791488080939327432e+00
1.017444962301474343e-03,1.902525713153016204e-04,-9.789808667290451183e+00
-5.084972349117232622e-03,9.837970618142961865e-03,-9.799668012188444521e+00
-2.790972304356670146e-03,-5.372187497089057906e-03,-9.802834054793017060e+00
9.366634889851996326e-03,-1.898397605824053008e-02,-9.770498138176893832e+00
6.661003555297534927e-03,-5.327100470341273285e-03,-9.804460824210421421e+00
7.431345398254880254e-03,-6.298804416947701487e-04,-9.810776091224516549e+00
1.555186707941897013e-03,1.064131488380268145e-03,-9.797775733973063339e+00
-1.317487674566180864e-02,-1.289420734326396541e-02,-9.811852533658578679e+00
1.336157087024705814e-02,-9.426329750290706952e-03,-9.785634619130625822e+00
3.139711065077926879e-03,8.098094138570079148e-03,-9.783952116129560395e+00
-1.214832921272799952e-02,-4.123754875991304109e-03,-9.801740010128517255e+00
2.541705396160501979e-03,-5.469852969882670361e-04,-9.777352239088129338e+00
1.990514980077053020e-02,-7.617589116782640113e-03,-9.798612855914875297e+00
9.986178229033722611e-03,1.662048895173880853e-02,-9.800479670340113358e+00
-1.525018488194331001e-02,-1.734972641548662275e-03,-9.801665720794579428e+00
-7.337170183072103981e-04,-6.698029860941635133e-04,-9.789036324681676504e+00
6.449950812282550551e-03,-8.657376681685990255e-03,-9.792391967525821528e+00
-7.769657029405433075e-03,8.316394433115168253e-03,-9.804407910162048267e+00
1.019619952300166929e-03,1.994722410235459306e-02,-9.792922209631282016e+00
1.882830767020876594e-02,5.265595162564235161e-03,-9.807207461147386951e+00
6.369779800283068222e-04,2.688702420331759912e-04,-9.800335103443330809e+00
4.260049659288405247e-03,-8.351292731354554785e-03,-9.801814236165080629e+00
6.259341521161058616e-03,2.866817139712545589e-03,-9.806134445811100164e+00
5.517438025161705561e-03,-2.685863371019204648e-03,-9.788948557202919787e+00
9.212826529254734137e-03,2.071555166854216479e-02,-9.796151430476115252e+00
-6.639369898541809534e-03,-4.735137617213141755e-04,-9.782266143464809716e+00
2.796613297992243171e-03,-2.131996561588990306e-03,-9.797770526560174886e+00
-6.435873940002725772e-03,-5.285995337659014394e-03,-9.789684560545563130e+00
-2.609071641428452586e-03,-8.560180953601208981e-04,-9.804663542336484738e+00
-2.646172530697966929e-03,-1.716718312210141527e-03,-9.799975836921767325e+00
3.799070278909124406e-03,-9.532198279967176585e-03,-9.798697632554846493e+00
3.905441151964039823e-03,-7.308026474749939466e-03,-9.796868392749567889e+00
-3.847254003607022271e-03,7.181946624488099069e-03,-9.796664952124588766e+00
-6.560360561903325408e-03,-4.190926598834662613e-03,-9.784461247941152351e+00
-1.807984797371780042e-02,5.296515670133792979e-04,-9.798014775364359608e+00
1.212728837198483439e-04,1.227279862171953362e-03,-9.803565267460646382e+00
1.425159932010665754e-03,1.196389164124556266e-02,-9.795119541765545890e+00
1.255571901803523120e-02,1.665251370003256086e-03,-9.792123030891890068e+00
8.919744645722199952e-03,-5.196839009580158687e-03,-9.808884297760284809e+00
-9.761861769779361930e-03,-1.924762630066849606e-03,-9.784954560685628522e+00
5.817725283492727710e-03,6.528670513876132925e-03,-9.799663756716302743e+00
-1.710191290695561514e-02,-2.319442976566275501e-04,-9.795722069864392978e+00
-6.645172030753573053e-04,-2.918875457403830986e-03,-9.780631741167605142e+00
2.738963004312400772e-03,2.378055113707172163e-03,-9.793226485521421054e+00
2.238065268432136348e-03,1.651617657060144547e-03,-9.798463127687547569e+00
1.988705711748044516e-03,-1.721228286072572743e-04,-9.789423477553249597e+00
-1.085415983290382268e-02,-7.275053200650071286e-03,-9.800363255196687717e+00
4.319091336682790751e-03,3.117642325126869767e-03,-9.793003146669899905e+00
2.052194757012626089e-02,-1.839746522510714560e-03,-9.785979599905033410e+00
-8.597656695869381610e-04,1.993411261180566595e-04,-9.788793352264365311e+00
-6.612093169000732122e-03,1.041353515725139400e-02,-9.795118161000978318e+00
-8.100638687636311022e-03,-1.373792431669040859e-02,-9.802530929589353903e+00
1.436658584261566070e-02,-2.480338645898570206e-03,-9.801558603218136767e+00
-2.963240987241622017e-03,1.125556373169430725e-02,-9.799122446204988179e+00
3.524326940734216589e-03,3.355183723929965316e-03,-9.788769504367389018e+00
8.246010469574851023e-03,4.664493572055805636e-04,-9.787463198746484849e+00
-3.108346134947418370e-03,3.919656241583502863e-03,-9.805798830237886676e+00
-5.437318526499669395e-03,-1.503811980028011037e-02,-9.800138462003758377e+00
-2.222400802695388700e-03,1.729504148671177563e-03,-9.785102778068928586e+00
-4.200307480760442219e-03,-2.592381115240882314e-03,-9.794528861130606501e+00
1.403562667377237540e-02,8.712820758656268476e-04,-9.794766157471851642e+00
-1.432379504528050879e-02,2.357545169862429197e-03,-9.784225348087510099e+00
3.485459031657717026e-03,-2.416045252905290458e-02,-9.798674162059251458e+00
1.202458640340863232e-03,-6.487637482716000943e-03,-9.797362710037685218e+00
-8.632889486571659193e-03,3.597808319361930646e-03,-9.793217204217933514e+00
9.631039107516701364e-03,5.251225823881594014e-03,-9.801584654834385901e+00
-6.073662664772377408e-03,-6.055438860406159307e-04,-9.790259605204571614e+00
-4.533890443990507176e-03,-6.787044869628001444e-03,-9.804114045054529214e+00
5.928481448787361642e-03,5.799218217169790912e-03,-9.796449461008673865e+00
-2.183060890396145825e-04,5.380771282535790675e-04,-9.793146851178102352e+00
4.569582717416096132e-03,-2.118909019607014346e-03,-9.786368964536301007e+00
3.537925736595382703e-03,-1.709918267762193652e-03,-9.788940165336439847e+00
1.076101856635672954e-02,-3.550447811770839762e-03,-9.808980222647303293e+00
-2.284997208322772590e-05,2.698735098569273252e-03,-9.786261605262749796e+00
-8.531869833886467774e-03,2.571242102442913152e-03,-9.800449594484007321e+00
-1.342011920557814944e-02,3.702002561072011578e-03,-9.787822540136062344e+00
1.088510844989472315e-02,7.188492407870588317e-03,-9.815218504406978184e+00
-3.755983353159240631e-03,1.297954605141741656e-03,-9.800308594209122148e+00
-3.526844756370035080e-03,-4.423264218290237984e-03,-9.786228724508935883e+00
-4.561306166974554190e-03,1.132883120560095568e-02,-9.796650261926906467e+00
2.019230224109655122e-02,-7.085535583812037352e-03,-9.797516029243324098e+00
-9.371550892186819842e-04,-7.652894568773717723e-03,-9.789406366769505041e+00
-1.225747172640683554e-03,-1.170885400814165693e-03,-9.795854919980353515e+00
-4.617207914195156984e-03,-4.941479232800595131e-03,-9.787294266614779303e+00
4.270387232532429130e-04,1.556312678149484631e-02,-9.793569066582342941e+00
4.619468394144907522e-03,-5.694296881706783706e-03,-9.791767446098816663e+00
2.511275093644766733e-03,-1.194380174757996146e-03,-9.785329329631831996e+00
1.163832909901633917e-03,-7.513157281927643899e-03,-9.791077875902495009e+00
-3.751257077475523855e-03,5.463988955075948584e-04,-9.795684611525171448e+00
-2.608251981640968831e-03,4.959812561057947572e-03,-9.788710997338460729e+00
1.657802393038453753e-02,-5.355020337743565152e-03,-9.800185423058159984e+00
-9.499472175885811248e-03,7.034114515214334902e-03,-9.794444561890776058e+00
-6.925482423589793615e-03,1.747126887594924530e-02,-9.790216706282082626e+00
-5.955404762689657169e-03,8.931047127569032712e-03,-9.789264993970219209e+00
-2.763071186349224653e-04,-7.158900124152607625e-03,-9.802094143275624560e+00
3.844527349666686049e-04,3.489438223267360851e-03,-9.788479285091126414e+00
8.814408901351333120e-03,1.225438873539983538e-04,-9.787818692942614973e+00
4.451632304163662644e-03,-2.462178554261280298e-03,-9.796788692887421490e+00
-2.864648866372530162e-03,-1.412519957617243936e-02,-9.796567035390250311e+00
1.133309290534500417e-03,2.509645594657230160e-03,-9.791291796339924858e+00
-1.536264799362292884e-02,-5.336204094636629904e-03,-9.795837934102081590e+00
6.306152402964513085e-03,4.180268490454220644e-03,-9.798909162407509754e+00
-1.469212733704945012e-02,-5.503803687097600424e-04,-9.795083805549857914e+00
-4.029894883325358182e-03,-7.551726206179220323e-03,-9.801822338158963532e+00
-3.287749061669464207e-03,6.634278882878153795e-03,-9.800164341678275548e+00
-1.723574491543793151e-04,6.746013057051330163e-03,-9.800962561034481269e+00
-8.105241515982821582e-03,2.207912505592506472e-03,-9.798999014526044604e+00
-1.233764807866095025e-03,-1.263499264735226495e-02,-9.789825051437523129e+00
6.365962043173104164e-03,-7.306245776539675718e-03,-9.794053795527759121e+00
1.761331330153142333e-03,-1.342461336431538749e-03,-9.802978464215126309e+00
2.935571558742036680e-03,9.073718603235723240e-03,-9.793576416570656917e+00
6.386454909742589163e-03,9.913424377373606863e-03,-9.808313785481983516e+00
5.782055099912052076e-03,-1.646851462979956847e-03,-9.790614846312045927e+00
-6.154718969671079537e-03,-6.048221978955155981e-03,-9.797410565615532363e+00
9.720609721543826270e-03,1.754415587720933607e-03,-9.805691251844626422e+00
3.854251100730968216e-03,-2.874375500560123926e-03,-9.800031618137090561e+00
-2.070190824633781363e-03,-1.095971294451203275e-02,-9.802119935252971317e+00
1.608945433338243407e-03,1.319348912644271272e-03,-9.793253062521456442e+00
8.123666822565371592e-03,-6.748771496977626350e-03,-9.786638519403517478e+00
2.385627556749459009e-03,7.069219150629288406e-03,-9.794094757063486867e+00
8.676606213665458058e-04,2.270880526125412194e-03,-9.790801670154481329e+00
-1.112984521905294871e-02,3.650170613941558940e-03,-9.813873504465581377e+00
7.851373684013703350e-03,4.334966322242092378e-03,-9.790249471384498747e+00
-8.057069395965284903e-03,-1.019383297565904477e-02,-9.792059384357298057e+00
3.814901916034351987e-03,-1.136363864091551913e-02,-9.795578351454544475e+00
-1.683651216625231843e-03,1.851632538337501070e-03,-9.786016952549152492e+00
-3.357023699420660055e-03,9.473731551128508274e-03,-9.790527107811920260e+00
-1.456587202874387414e-02,1.590588658746041814e-02,-9.795140863455765512e+00
-6.230955564407292431e-03,2.250599263627418769e-03,-9.795833287577872639e+00
1.642383425828411458e-02,-3.371062023652972566e-03,-9.797045697969869238e+00
1.166889862138575408e-02,5.479447943148219383e-03,-9.814397275879043647e+00
8.682632879555422442e-03,1.070541119910405330e-03,-9.783580223532444720e+00
-3.709866082476987945e-03,-2.363486003298096317e-03,-9.786071879295787923e+00
7.469484067012731494e-03,-5.810096283261058326e-04,-9.789083811656533740e+00
-1.024871767499651622e-02,-8.557191508488066339e-03,-9.808657884078547440e+00
2.550880222413083771e-03,-9.006360286939633225e-03,-9.795505238305638684e+00
-1.046915986606942670e-02,-1.344010268713319474e-02,-9.802393842748919894e+00
-3.965138474195637613e-03,-1.061213657420724717e-02,-9.790532726914785044e+00
8.532469472570735139e-03,-8.309058854020797899e-03,-9.792406898854506991e+00
1.738615615939425110e-03,-1.526572455344427960e-02,-9.795377758167237658e+00
-5.137926449686525988e-03,1.631088996568898913e-02,-9.805574064321636030e+00
1.522227294999630408e-02,-3.509563518306325642e-03,-9.790133893842568824e+00
-2.112882219544611612e-03,1.112358149674562771e-02,-9.795313346622773309e+00
-2.819216919871741101e-03,6.054022067727721917e-04,-9.803383575754237356e+00
7.379347827714820805e-03,2.223536351743189178e-03,-9.792770828551086382e+00
1.128077769212981057e-02,2.212683294577886400e-03,-9.815057848334294732e+00
1.449097068510562906e-02,-2.830011763459222497e-04,-9.802167792828001325e+00
1.261867726085547006e-03,-4.056872670030021479e-03,-9.815029711000267554e+00
-5.855093661959521502e-03,-9.736681783086670013e-04,-9.787435619998786862e+00
1.407229269957286158e-02,6.059456461174879925e-03,-9.790974648472991149e+00
5.241815048213020311e-04,-1.170686248948262171e-03,-9.790817061581300607e+00
1.774205952010772178e-02,3.524686439836981471e-03,-9.806630139563075943e+00
5.029816795933406311e-03,5.117364114193695412e-03,-9.807460167725157163e+00
2.141569264392288729e-03,-3.613435156395324011e-04,-9.782930551061154389e+00
-9.150424179492654131e-03,-6.761059404254244481e-03,-9.797156569496920042e+00
1.211650525178959228e-03,1.732552582973098665e-03,-9.780611934816183961e+00
-2.851198950790171955e-03,-3.258546845228713160e-03,-9.779908804885966589e+00
1.815145565992360181e-03,-7.550655244345847242e-03,-9.797427343900011465e+00
1.965506463558068344e-03,-1.624623152276940749e-02,-9.799840990837394017e+00
3.943960665867117348e-03,-5.814977101274808671e-03,-9.800649969700305775e+00
-4.771901584833199497e-03,5.491924174573099273e-04,-9.803119018801231377e+00
-3.515315372625838066e-05,-1.122120848897725787e-02,-9.789346511485357283e+00
-4.765360346946179854e-03,-1.549900587875063622e-04,-9.806511495239162102e+00
-1.854798859759858526e-03,-5.396070093954338440e-03,-9.801779223534895280e+00
-2.787522052880626704e-03,-2.416384981143808452e-02,-9.792563300786211400e+00
-3.585470433399535334e-03,5.158963369065312082e-03,-9.780043720042206346e+00
-1.366407506584528433e-04,-3.152008649203553742e-03,-9.777384620687325167e+00
-4.489313151517138230e-03,-6.590391892298403699e-03,-9.788339686462995459e+00
1.113337266603206706e-02,-2.699822858408694980e-03,-9.805246042994120614e+00
1.438148661174329900e-02,4.433301251257217891e-03,-9.802093404106287267e+00
-6.357037732321591667e-03,6.839172187890847979e-03,-9.798217169406880700e+00
1.863115972021705787e-03,4.600124820429390797e-03,-9.795479283630420753e+00
-1.785195315449058856e-03,1.758313406328624294e-04,-9.793491643051801532e+00
-1.446349745014726372e-02,8.277015574999432163e-03,-9.795950895588120488e+00
4.026376104567273156e-03,1.686675506494792615e-03,-9.795589395413577094e+00
3.624625740564684905e-03,-5.978523559361290270e-03,-9.779774063232627768e+00
-2.879926977218040963e-03,-3.164775173969836247e-03,-9.805247153739918176e+00
-6.002896128639394029e-03,-4.734393997725914733e-04,-9.793338499888390558e+00
-3.675218698518516527e-03,1.659388528690090500e-02,-9.799140045590860382e+00
6.036362486566302851e-03,-4.346130686356084946e-03,-9.792037722443335923e+00
-9.811352330782274582e-04,1.056632900054375922e-03,-9.796143635682932782e+00
-2.033571338152641642e-02,2.672914365159005656e-03,-9.790366537847656758e+00
8.444324838721012361e-03,-4.016898009229472738e-03,-9.785432905782872837e+00
2.253443983003830618e-03,-9.078050724523764603e-03,-9.795903946238057713e+00
2.121992162339582811e-03,5.962660467086126556e-03,-9.802958930500762946e+00
6.379044544085827988e-03,1.215621242584144848e-02,-9.797327338387290752e+00
-5.278174609919858602e-03,1.751942026407718456e-02,-9.796792027434557681e+00
-6.616611258288776108e-04,-4.557256330981070656e-03,-9.797309784325381798e+00
3.837385454347890489e-03,5.699832706193806720e-03,-9.792182427621042962e+00
1.940760261001606103e-03,7.186844503967822944e-04,-9.789797215412688658e+00
3.071430760119136898e-03,1.974426623626199771e-03,-9.818172930327419223e+00
-7.827145017875502056e-03,7.601109583318935679e-03,-9.787329995991431275e+00
8.260512865732415680e-03,-3.441163718800579942e-03,-9.792280955347235860e+00
-7.250414413964199889e-03,-1.032543611395161584e-02,-9.792827362903535615e+00
1.065020191597274880e-02,1.307839031944078162e-02,-9.799812040711934458e+00
1.322219091466917545e-02,1.732404164824894247e-02,-9.780951996289031669e+00
-3.403069349472824263e-04,-3.628484771243805761e-03,-9.792624649021103522e+00
5.776734600039622539e-03,-9.433685559138840077e-03,-9.791802262788513289e+00
1.262807563053785359e-02,1.906698253791982024e-04,-9.782287247276398645e+00
5.559147639752097178e-03,6.357994669277966873e-03,-9.799279138512307696e+00
1.699536108574852640e-03,5.502609266021499419e-04,-9.785827883494436108e+00
-1.444107720621628154e-03,3.573995377388200501e-04,-9.797540084142818628e+00
5.052329226075865862e-03,-3.422411118117570290e-04,-9.798987081928515863e+00
1.155983189952447358e-02,-1.907545756816597746e-03,-9.799241058566630969e+00
1.273456811492117841e-02,6.124578291369536451e-03,-9.790745814955199577e+00
1.329200333812530221e-02,-6.845210132644110115e-03,-9.808585967693062457e+00
6.110769654888675677e-03,-1.782430206516162890e-03,-9.794540730093826753e+00
-3.327463129366742267e-03,-5.239465865987294468e-03,-9.800625352958880043e+00
-1.292334854858276198e-02,-5.696791832577679203e-03,-9.789963555550778906e+00
2.242594901510096966e-02,2.979557763948110366e-03,-9.796876499342502598e+00
6.189872754742122875e-03,5.449971258874681743e-04,-9.801475050624699037e+00
7.901973111520998669e-03,-1.189538475457353230e-02,-9.801022197801488645e+00
-1.708054042229273112e-03,2.833427613741622969e-03,-9.787861482975948491e+00
1.572539561141242381e-02,7.474787884297525060e-03,-9.793008080873468302e+00
7.751110026078539142e-04,5.828577205007309456e-03,-9.791520955833322049e+00
-6.659210498220401175e-03,4.957635045093660743e-03,-9.799702353063874938e+00
-2.038789406049293200e-03,1.103716271112686019e-02,-9.784989924676466444e+00
3.644759760037025631e-04,1.717032883793600043e-02,-9.795624315368351986e+00
-1.288874492371234678e-02,1.767710545266488456e-03,-9.794454048385468070e+00
6.886694383695344005e-04,-1.661687263517041646e-04,-9.816072701499333419e+00
-1.476758597788800469e-02,-6.137095531157792409e-04,-9.801765044699092044e+00
-3.017759699017658927e-03,-8.380765389033305660e-03,-9.783754342335081233e+00
-2.617840460544871087e-03,-1.199666102564603785e-02,-9.792026775658261073e+00
-1.349148272845163490e-02,-1.229863018031294476e-02,-9.791847942180845976e+00
1.431661905899318538e-03,1.547046870779750401e-02,-9.780029342850644625e+00
1.463736414338895689e-02,2.356855923461712628e-03,-9.792130569811035912e+00
-1.616008732630050317e-03,-6.202977356666556676e-03,-9.792604962699844151e+00
-9.984053344921311676e-03,-1.632083452458129094e-02,-9.795217907602065566e+00
4.097710322594731377e-03,5.242722869961316534e-03,-9.790968084405831107e+00
9.703631456861331532e-05,-4.668885391143980275e-04,-9.795430349105441081e+00
-4.822624353775503865e-03,-5.844341273675859177e-03,-9.796633170574015281e+00
7.582880008196787175e-03,-1.238151600342002725e-03,-9.803043456966948455e+00
2.767211158543273885e-03,-1.900635565724259970e-02,-9.793563925527992708e+00
-1.044219830564654082e-02,8.423019978307258460e-03,-9.797400946721158022e+00
5.377867598634848006e-03,2.784089126224712548e-03,-9.801369855136790932e+00
7.865088924525203903e-03,6.509885524932780380e-03,-9.796026101064157388e+00
-3.247218906156373961e-03,4.964847052197389303e-03,-9.810282365924148706e+00
-1.746587805475619329e-03,1.842866959843618771e-02,-9.800232549636824331e+00
1.188264443709858859e-03,-2.855223246644076306e-03,-9.793933395996832658e+00
-3.116373223714752859e-03,3.149419179769164922e-03,-9.802774761077008847e+00
-6.147583577295877635e-03,-1.628869309714386102e-03,-9.796893609369121236e+00
5.220224457949959075e-03,1.205835771215571679e-02,-9.809194044786817557e+00
1.152358820068905281e-04,7.848674950772500589e-03,-9.799187463241986862e+00
-1.200821766112439813e-02,-4.188185133299577624e-03,-9.799216415344206510e+00
7.885538282347700004e-03,2.748309418579395532e-03,-9.797837890588358079e+00
1.860013067025863363e-03,1.640840271852371524e-02,-9.807662749142057379e+00
2.613024762811086248e-03,2.738969120810713816e-03,-9.787473283126180590e+00
3.141933557857184024e-03,-2.955117962743120195e-03,-9.797392768050492862e+00
-7.808264676944936394e-03,-5.450354687509801829e-03,-9.794683777768153021e+00
-1.803425150674071997e-02,-1.045162899032234076e-02,-9.785512710193147612e+00
-9.864701036058668229e-03,-1.685726902396986887e-02,-9.801349253249641791e+00
-1.611659510355033069e-03,-3.515915850531312146e-03,-9.796051963778626970e+00
4.737327260572971564e-03,1.848590142147573875e-02,-9.785342807473430327e+00
3.650289283846278651e-03,-6.802173035449720316e-03,-9.817710624046879886e+00
-8.051414203823282698e-03,7.061911074589977567e-04,-9.782475792547858262e+00
3.587851661288259369e-03,-6.642013813261385315e-04,-9.784337562503516494e+00
7.662666275760783401e-03,-4.619344374098263706e-03,-9.785867327997960885e+00
1.202540592213808797e-03,-6.988076726483835079e-03,-9.800716384100791601e+00
7.405420478987681347e-04,3.328080760927262360e-03,-9.793657199624863807e+00
-4.441880918454972280e-03,-8.531832947215246821e-03,-9.798491347895048165e+00
-4.050745174685981519e-03,-3.541763198137950347e-03,-9.804486545286293264e+00
-4.522951035302355538e-03,4.405492668606339132e-03,-9.804977532201462509e+00
-5.302514963832069203e-03,6.851860447960628209e-03,-9.793806263024364966e+00
-1.058298711139921480e-02,8.376952801907439766e-03,-9.790497303605040003e+00
-1.114121375315965841e-02,4.910522751185346845e-04,-9.794300728550499713e+00
-5.864574661188926528e-03,1.508197612756081735e-03,-9.784185537117457088e+00
5.826861488644799990e-03,7.141907549025027988e-03,-9.799491660877475141e+00
4.274643485784952908e-03,-1.457288659429031678e-02,-9.793831640521160509e+00
1.634715369733518234e-02,1.630724862980548889e-02,-9.801461981935627676e+00
6.462905173244906122e-05,-8.074823126823105907e-03,-9.807110624432681334e+00
2.570881423516569158e-03,1.327127404918786342e-02,-9.802513331315342526e+00
5.752246311228136717e-04,-3.474415580471881728e-03,-9.804033002621785897e+00
2.397616644945107719e-03,-4.425257328813755019e-03,-9.801273078876182154e+00
-1.970631206864948380e-03,-3.326347693658098306e-03,-9.782767827942949523e+00
5.988525283673578736e-04,4.611954459615888458e-03,-9.798459228566006374e+00
-4.130705329738118135e-04,3.686940680594204788e-03,-9.789543564232056738e+00
-3.076732830830885526e-05,-8.012609916562732360e-03,-9.795768103581133701e+00
5.848176271702773196e-03,-7.072317478785253471e-03,-9.784297933268344849e+00
-6.189431895564595151e-03,-1.859754251142673592e-02,-9.797969458792049835e+00
-9.257204751369119047e-04,1.448068716595383347e-03,-9.802669790709286346e+00
4.067741719206432842e-03,1.879171943466067000e-03,-9.798515204993089256e+00
1.823167627018034559e-02,1.494539760741225029e-03,-9.788697242604024851e+00
-1.107062963353879571e-04,8.885151949920341158e-03,-9.788609260235057619e+00
-2.639001571072708847e-03,7.506172341224137678e-03,-9.793369179318739626e+00
1.132606517648641203e-02,-1.148204228266153613e-02,-9.788310488719000446e+00
4.588476036299137060e-04,-7.073255156777871581e-03,-9.803272870888253721e+00
8.312183756334157528e-03,-6.767860916699022789e-03,-9.784586708738299166e+00
-1.592249233704050651e-02,3.628842514414497506e-04,-9.789710173620694178e+00
-9.380596095808780774e-03,8.552801917070806947e-03,-9.787457558830878313e+00
7.120598701406283433e-03,-1.973707385094261493e-03,-9.800255759314405068e+00
3.424540569164246338e-03,-2.584796573195807107e-03,-9.803792936234644984e+00
-1.155692154593977424e-03,6.418503550974855899e-03,-9.776538629941818215e+00
2.161552584080492050e-03,1.736269707255743214e-02,-9.777887175393543018e+00
1.353911446889791148e-02,9.235020679100185191e-04,-9.813951528422601100e+00
1.452864352540412986e-03,1.199930173519428954e-02,-9.787671062819486067e+00
-1.345935931452595536e-03,-8.907788022078314688e-03,-9.787693117317003200e+00
-1.781786191666015831e-02,1.146575445912125478e-02,-9.795369622754417804e+00
7.517166246516573253e-03,-2.796993110380023920e-03,-9.775461782804928390e+00
-7.427792898794150986e-03,1.053640752102198187e-02,-9.795684664157757737e+00
7.738008553836847256e-03,-1.263678690794123316e-02,-9.793166550617886656e+00
1.611357984421626574e-02,7.270420868886352285e-03,-9.813135689840015274e+00
8.164030125556187914e-03,-8.692785368497326151e-03,-9.792108086638444675e+00
-1.014076589002561174e-02,-1.534204902208527671e-03,-9.781161867474194693e+00
-1.520183101009875588e-02,1.021281287377018808e-02,-9.799389394856673263e+00
-7.989316605278368654e-04,8.414852737320597381e-03,-9.801039417471065107e+00
6.691652963082472469e-04,1.111171520760127502e-03,-9.786671537428315304e+00
-7.587960700401284210e-03,7.457162625103209465e-03,-9.799330428257784220e+00
-5.325493938609370502e-03,1.803776464242443436e-02,-9.786700715850047416e+00
-1.034539923858683423e-02,7.448503423139289648e-04,-9.798525227817094674e+00
-1.399763259385128356e-02,9.495127792165729622e-03,-9.794796606803261696e+00
9.683529899006533895e-03,6.388007606704992143e-05,-9.790259768616394354e+00
-4.319638099619961362e-03,-7.403936440755983645e-03,-9.812740412845856852e+00
-1.221935910165606633e-02,-5.993287398635368558e-03,-9.803620013029682667e+00
-5.919087709238906822e-05,-2.592555086918541234e-03,-9.792902189223775977e+00
-9.043624822479220254e-03,6.676353615931406027e-04,-9.788038516403240408e+00
-2.371977458001134700e-02,1.221417095671622002e-02,-9.790850953601614393e+00
-3.273171353479403366e-03,-7.445373528983133260e-03,-9.801028907078636720e+00
3.483334189644702542e-03,-2.020969627983286530e-03,-9.810570335052100077e+00
3.814280058098572582e-03,3.050799376591488768e-03,-9.799848016976316245e+00
-1.306920025289237501e-02,1.055268697315882125e-02,-9.794563959739383208e+00
2.566985061520614050e-02,8.075316213103769791e-03,-9.786494214812828218e+00
4.120408182004342904e-03,-3.845093834466821979e-03,-9.800098472507022151e+00
-3.075809051505996611e-03,-2.451646817211225373e-03,-9.783915876607565565e+00
-1.831827845556183946e-03,7.030309533390282674e-03,-9.791931481498959755e+00
-8.497559744581942992e-03,5.306613395365955207e-03,-9.791161474960318856e+00
-7.363658141185576607e-03,5.537560614397077016e-03,-9.803554363043156528e+00
-5.144747249123892384e-03,1.164999738419930306e-02,-9.797572336783026969e+00
-4.556767753097935338e-03,1.533925533296805199e-02,-9.796208789926287963e+00
5.918766529268885447e-03,2.459761568574476975e-03,-9.796579316257819414e+00
3.449351268324522455e-04,-8.434215734467937538e-04,-9.776083539204517336e+00
-1.018030568180508782e-03,6.034987445640687016e-03,-9.802647026373449535e+00
-9.584258993925747275e-03,7.387634356257740884e-03,-9.788473108932878475e+00
-1.015105713561254355e-02,5.099426971728681680e-03,-9.794927940025932145e+00
-3.956328345949120971e-04,-6.152486286976013678e-03,-9.796697228234300781e+00
2.029715745943500623e-03,-5.759864180472196171e-03,-9.801796946320710191e+00
-9.279575046451249073e-03,1.033348762985679230e-02,-9.797412767777329279e+00
1.310540078749030182e-02,5.982174291821637860e-03,-9.791322154793586918e+00
2.560293610842214536e-04,-3.934454133681390166e-03,-9.784239925624929057e+00
3.081976154217183021e-03,1.341919909437546202e-02,-9.783072896701449750e+00
6.715091736007032519e-03,-2.800869616802883176e-03,-9.794824076369460286e+00
1.653673435639402950e-04,-1.121621693797258523e-03,-9.803084739004402692e+00
1.031633953004636520e-02,-1.071024283211972141e-04,-9.791732275860036694e+00
4.620592607987334711e-03,5.899463169766437642e-03,-9.789991494587987120e+00
2.192848828167018663e-02,3.975607823790791584e-03,-9.802595286774026917e+00
-2.532861830248302366e-03,-5.585411000979844005e-03,-9.788165781788340070e+00
-1.999948550863455896e-02,-3.873264560240980738e-03,-9.799628979207605894e+00
-1.504613080929730409e-02,1.032187091650986878e-04,-9.800447874497306699e+00
7.756359535735060694e-04,1.643704358848075558e-02,-9.797749941102329885e+00
1.886033183099590461e-03,1.871633094761256458e-02,-9.805338901080483893e+00
-2.464294583741063419e-03,-8.941332037094466140e-03,-9.793691469797268567e+00
-1.549667188017048516e-02,-1.608263925647627351e-02,-9.788465641349292312e+00
5.771494255138110568e-03,5.768834117480617710e-03,-9.779310613094514437e+00
3.091909550028029089e-03,-1.595013910231882649e-03,-9.797551520393714242e+00
1.273681127411380870e-02,-3.303784038603472129e-03,-9.787494432168578840e+00
1.104821591976039123e-02,1.343259997769429004e-02,-9.801081197339049922e+00
-2.424759567267325850e-03,1.118192308342886611e-02,-9.809105827063390848e+00
-8.623133977370007683e-03,4.683110583746403089e-04,-9.791374091194771978e+00
-1.685269659726684613e-03,-1.623665725224583689e-02,-9.803843989122221103e+00
7.659609062671771801e-03,-4.501223234451791691e-03,-9.795772185581562042e+00
1.055503046339057761e-02,-9.755598481910153150e-03,-9.809246323474560825e+00
-2.109581487886667828e-03,-2.856646486179857235e-03,-9.806152355791500241e+00
-5.773937766992470223e-03,1.721432752182018577e-02,-9.784739348596099617e+00
2.453311039883113425e-03,9.575177930139460933e-03,-9.798301336844973619e+00
6.576795130733097822e-03,-8.738009035570875813e-03,-9.782660600600600276e+00
-1.555422081927882762e-02,-3.798207196672933640e-03,-9.791498212937176149e+00
-6.724939099501582194e-04,1.174156335080156857e-04,-9.793234665845647058e+00
-3.545135149769660689e-03,5.956113315141274914e-03,-9.807575704742566458e+00
6.006323202290161228e-03,-1.620027410755667599e-02,-9.796672704046391900e+00
1.379067633878410491e-02,1.072351716507941727e-02,-9.806316359885364875e+00
-1.333285824674732001e-02,1.385666827407504645e-02,-9.801474246940875545e+00
1.069636457268513877e-02,-1.190879642100193744e-02,-9.786360141821077718e+00
8.756884592952943192e-03,-8.684584953006019986e-03,-9.798224747675176260e+00
9.019420251657818063e-03,8.402240246215098712e-03,-9.788287968658078597e+00
-6.247728820935941757e-03,-6.193914896933693133e-03,-9.798303164580705271e+00
9.734283065109669217e-04,1.613847681926763172e-02,-9.798180653125672990e+00
-6.677622029983278258e-03,4.020820942817882396e-03,-9.791042477649588349e+00
-6.549310576196541028e-03,-5.776418328527429397e-03,-9.804813217153217408e+00
-4.913334879318801687e-04,1.624140312942967679e-02,-9.795945949683529719e+00
2.463182187732703907e-03,8.112460544744468224e-04,-9.789484022222710635e+00
-4.902519272562696519e-03,-9.389418782345754222e-03,-9.785107802499133811e+00
4.018502296722420257e-03,-1.859870226616863959e-03,-9.805472057722337098e+00
6.603425330071281511e-03,-1.616762478511263919e-03,-9.798467395713519323e+00
9.231634449474830032e-04,-8.771694799099574724e-03,-9.784808235437186141e+00
1.473465841504260996e-03,-1.689527849219667199e-02,-9.802351646788761030e+00
-1.444855426524596122e-02,-9.386141637698346141e-03,-9.795216192036154013e+00
4.882697800965041766e-03,3.268264246086938045e-04,-9.798456181600259995e+00
-7.503699202378794238e-03,5.786179317360997526e-03,-9.811683084095195184e+00
6.111307152121690962e-03,1.001101784188119376e-02,-9.794449988869041945e+00
-3.024320357955566710e-03,-5.882925546849028520e-03,-9.789889062586125235e+00
1.978894280666244898e-02,-2.721933976681140642e-03,-9.803136832331706074e+00
8.319524490281313828e-03,-7.045171786618399136e-03,-9.802098984095479750e+00
-8.372285893998328635e-03,-1.679139252294939780e-03,-9.792356353230031729e+00
-2.817795958694160191e-02,-5.912295125705801374e-03,-9.792216837679701413e+00
-3.873990430886445780e-03,-1.971458337272436259e-02,-9.777404268771435980e+00
2.123799539399917093e-03,5.959552588596299209e-04,-9.797329722309449096e+00
-1.483321624274617579e-03,-4.481817024931953990e-03,-9.786197052655753126e+00
-7.378885010367643334e-03,1.091847082462318874e-02,-9.798167830370527298e+00
-1.575515745320867078e-02,-3.201328224322045560e-03,-9.783868852935688309e+00
-1.211663823785557106e-03,-2.227356290686261994e-02,-9.784998315731343155e+00
-7.691259562289695477e-03,4.026492408893973807e-03,-9.785241243930748567e+00
-2.237444814083909203e-02,8.857149526321205293e-03,-9.808011896326732426e+00
-7.804488815910923943e-03,3.451319034683233283e-03,-9.807865421721819743e+00
1.108456060372164584e-02,-5.662710489848674046e-04,-9.813793533009958381e+00
1.402561465700306528e-03,1.483901507573283460e-03,-9.793349392751958149e+00
1.132866730543783014e-02,-1.687111852663985070e-02,-9.805545669005001130e+00
8.102543162634080059e-03,2.272045776931434866e-03,-9.789355969209326602e+00
-9.323363711977125136e-04,-3.123900086891541472e-03,-9.798427815768977922e+00
4.672153181838274542e-03,6.139888177826945473e-03,-9.809751502206296436e+00
-1.781708252730971123e-02,1.977858598944737863e-03,-9.783441663403369404e+00
6.216878646557774668e-03,1.137131018132102149e-02,-9.797385142832238714e+00
-6.106221293580847351e-03,-1.222915242717045230e-03,-9.803850603782825246e+00
4.626318557036634624e-03,-7.529623483677622955e-04,-9.785669264365525422e+00
2.382255459575046211e-03,-1.549818894199421655e-02,-9.790133123225352563e+00
-6.122516110856297822e-03,-1.657019118627780802e-04,-9.803939000010057470e+00
-5.488790826253841723e-03,-4.502064253545947324e-03,-9.804563414527660115e+00
-8.761180080791354866e-03,1.909646013558253044e-02,-9.808609127207143175e+00
-9.008772334888755576e-03,-1.056745857764919243e-02,-9.793232795169108940e+00
1.758678110250332582e-03,-2.382171193511066314e-03,-9.785332593141895074e+00
5.770767032215532756e-03,4.450919653388025338e-03,-9.792197971030068615e+00
2.090288566562866976e-03,-6.087690762879615150e-03,-9.805110814552783438e+00
6.095064729361345489e-03,-8.570597721090410584e-03,-9.793459231274683319e+00
-5.157000526872371378e-03,-9.023493188775742052e-03,-9.789005767931520552e+00
6.936566623896295650e-03,-1.634433114469929435e-02,-9.797947658027968743e+00
5.159276985968273138e-03,-1.366427463289532254e-04,-9.800728324347774745e+00
-2.639882376643552363e-03,-4.315143965208290480e-03,-9.791845134921196347e+00
-3.813331516959922451e-03,-3.490438108582118344e-03,-9.796696065445507529e+00
-3.739995527199260024e-04,-3.070700521581217011e-03,-9.802843180851748883e+00
-6.869560132227717740e-03,-1.192227076648254627e-02,-9.784308244058454562e+00
3.143233486088210533e-03,5.583666225866541766e-03,-9.799459236750248436e+00
-9.056120966870702393e-03,9.904671355483252518e-03,-9.782567455189818517e+00
-3.549634570966649690e-03,1.201482232249331296e-02,-9.796409250199952012e+00
7.029222793303897300e-03,-3.353710120974864872e-03,-9.787922511443564844e+00
-1.437822545264995974e-03,-1.699745491247535434e-02,-9.796240329724801299e+00
-1.123522586040497789e-02,-1.249623347733476181e-03,-9.804315431891820865e+00
7.181937426316220389e-03,-1.206756983316034128e-02,-9.795080212381238383e+00
9.593483254971859470e-03,-2.347035222930960124e-04,-9.790213497123705366e+00
8.183746336270048688e-03,1.341692141715334144e-02,-9.799708938701630956e+00
-1.539286094837792260e-02,-1.607862183262704150e-02,-9.787537212379721296e+00
-8.770810033813395204e-03,-2.694675800656230443e-04,-9.802991636805336029e+00
5.267445540094134286e-03,8.410948629963560172e-03,-9.798679057046131291e+00
-6.592216880630821438e-03,1.134018880955149286e-02,-9.782488966336240210e+00
-1.031313650476247713e-02,7.957443898232441359e-03,-9.775865384641218014e+00
-1.129596775260555998e-02,-2.250157964774624798e-03,-9.796860242814661390e+00
1.247006996946121299e-02,1.346967838729273316e-02,-9.795746117564515743e+00
-1.503965490826922498e-02,1.852917407879123290e-02,-9.805145528707456037e+00
1.235132986684058139e-02,5.516050432138311019e-03,-9.798142585782542824e+00
5.354624492422027952e-04,-4.876675502769551272e-03,-9.783201256410347213e+00
2.528040509151358289e-03,-1.826066543442599055e-02,-9.805851128875890055e+00
-4.388032280717808417e-03,-3.378139462731203670e-03,-9.809045119997952256e+00
2.499835161843155795e-03,-8.313089636152116296e-03,-9.804518718944068567e+00
5.815337610324872522e-03,-5.624321086488575684e-03,-9.803791555217879150e+00
6.494423947095553061e-03,1.589474399969701031e-03,-9.814724077782679856e+00
-8.892784447661660277e-03,-1.201597372506392654e-02,-9.803392251881316355e+00
-1.581176407833011829e-03,1.163532363827447444e-03,-9.794547890960549452e+00
1.375755733812796542e-03,2.195754324428842471e-04,-9.805858864270900810e+00
6.068912733109887124e-03,-2.056855300426658172e-03,-9.800293047718696471e+00
6.666915172799424763e-03,9.504050538450872429e-03,-9.789620225803872700e+00
1.447680403085455005e-03,-1.910808990892809422e-02,-9.803338199748157678e+00
8.356673982630654154e-03,-4.065600120063785246e-03,-9.788276760332170312e+00
-3.616618647502263442e-03,-7.308048906080388818e-03,-9.804950583177589607e+00
-3.972313190083086309e-03,-6.424262175835962138e-03,-9.794235472061863845e+00
6.728445616105898502e-03,-3.941896503907335418e-03,-9.792191701513383251e+00
3.458221936527118481e-03,-1.111257224078581081e-02,-9.814594209518622492e+00
-4.995590751875738375e-04,1.508373049938742556e-02,-9.789117308548526353e+00
-2.401775140822607138e-03,6.703683001656714907e-03,-9.799874918546814584e+00
-1.293506425034486769e-02,-7.259437389918192880e-03,-9.777385599928900106e+00
-4.007161844284904545e-03,-2.801222718960297894e-03,-9.794525973372987693e+00
7.879128959464940657e-03,1.889326377764386639e-02,-9.782279582120761319e+00
-8.394435272502119615e-05,5.404838036552547798e-03,-9.803646849560454513e+00
-6.292060488742192911e-03,4.011183432396914043e-03,-9.801685403112747608e+00
-8.129956659298427949e-04,4.531615674094950988e-03,-9.791027872869506155e+00
1.113397153441430393e-02,4.483131930869167781e-03,-9.789919461267814427e+00
-8.569105411946826081e-03,-1.785306009196816228e-03,-9.800288056627362465e+00
-1.311067241105659358e-02,-5.341897030200866078e-03,-9.784666723326022719e+00
1.046839688554508478e-03,-1.096677012854585694e-02,-9.804666479394740009e+00
2.009558017999183571e-03,1.054888029420092410e-02,-9.782271733347377207e+00
9.164003221202136895e-03,-2.035270998235262294e-02,-9.795838172088430440e+00
5.817262683148502304e-03,-7.764811063172154942e-03,-9.792344860472736556e+00
-7.617874774759177993e-03,-1.034477636703460234e-02,-9.801625065594850028e+00
1.479881264932084162e-02,-5.614172837837131877e-03,-9.796880352454779839e+00
-1.308346574685639949e-04,4.350739604984404756e-03,-9.785605605745468338e+00
1.010813892525896041e+00,-8.911118480952445178e-04,-9.796938359622345160e+00
1.010159282459454300e+00,-6.691566154442589280e-03,-9.798740762000001325e+00
9.970551906428009037e-01,-4.686118971988619333e-03,-9.789928486562928356e+00
1.005699192259804864e+00,1.308462271601893920e-02,-9.791211463994317299e+00
9.981447402893306453e-01,-7.850557009699214717e-03,-9.778098646483188716e+00
1.007419199696595324e+00,7.580452192233161357e-03,-9.786686765150587775e+00
1.005471204767479199e+00,8.362419667146845856e-03,-9.804312271531696155e+00
1.035414465377928472e+00,3.614731591487821655e-04,-9.813098156743039979e+00
1.008120646080136851e+00,6.162011431214404686e-03,-9.790447920129048853e+00
1.039804034404830491e+00,-7.460390412599526497e-03,-9.796356246307423632e+00
1.026994919530944905e+00,-1.218176119364378909e-03,-9.792860622671584636e+00
1.031039051750631153e+00,-3.070997549512573255e-03,-9.801619334690762742e+00
1.036989158088617913e+00,3.674030757780926120e-03,-9.807200656891669865e+00
1.049344424771522011e+00,-1.045876212769925734e-02,-9.793290786658223723e+00
1.047579175446887279e+00,7.293652495244168886e-03,-9.799722273965979724e+00
1.066092542603476634e+00,-2.117853010112749970e-02,-9.801406957874355896e+00
1.076501811980005385e+00,-4.624994722884645700e-03,-9.806680845569674787e+00
1.082607242687655624e+00,1.433189174875539908e-02,-9.816981370102709548e+00
1.091548274428821186e+00,-7.073816200867912712e-03,-9.800589107328987026e+00
1.098289206242427429e+00,-7.254028574044221918e-03,-9.799971288586917240e+00
1.115550601887688398e+00,1.131001180644141730e-04,-9.799007862391052370e+00
1.126451848845212877e+00,-8.664774504464437324e-03,-9.825905933826977190e+00
1.123740775575380102e+00,4.419745617126086441e-03,-9.814510924648468304e+00
1.127403798446614092e+00,7.646695459575469922e-03,-9.819658998638283620e+00
1.147050474594185854e+00,3.842274070798231984e-03,-9.820221987004051911e+00
1.154479324143356411e+00,-8.892305445120084542e-03,-9.829845211589526954e+00
1.172642666523635357e+00,-8.689105099601921248e-03,-9.827460037781200697e+00
1.184086643296244468e+00,6.265741594976247976e-03,-9.830496922670167947e+00
1.199480395657295473e+00,-7.041577644910609543e-03,-9.835887201052806006e+00
1.214571699419917383e+00,-6.454610623261791517e-03,-9.838802334223228030e+00
1.232095342379129654e+00,-2.104582880313340607e-02,-9.842748645592749313e+00
1.239181839311122912e+00,-8.395515537169087952e-03,-9.843835289203727967e+00
1.262934439869270564e+00,5.618861876548288115e-03,-9.841240870927158824e+00
1.275627881726407065e+00,2.779532732881409562e-03,-9.853921256827984365e+00
1.291015465379162119e+00,5.961944497879722530e-04,-9.845119020731035064e+00
1.324516885700687041e+00,1.323664961737715945e-03,-9.854419606587896396e+00
1.327529370442670942e+00,1.059589343045445452e-03,-9.869984312569325624e+00
1.338426667571102957e+00,1.321396518075095700e-02,-9.846814760290511614e+00
1.358859566043148392e+00,3.175114479408451020e-03,-9.862901092204795717e+00
1.385638177359538092e+00,-9.501574137784395482e-03,-9.853615634760593878e+00
1.393781948703719520e+00,-2.771788189897599671e-03,-9.869253018026407531e+00
1.434363369067461536e+00,4.347157696659813102e-03,-9.874550196324882734e+00
1.424581483897040979e+00,-1.577318795411378205e-02,-9.864367070037491914e+00
1.452557793183974599e+00,-1.091184794699439492e-02,-9.870520977365774939e+00
1.488607622902333283e+00,4.549376299456426610e-03,-9.887633627795228364e+00
1.507705032835227943e+00,8.162699500315905715e-03,-9.883783183874948364e+00
1.528299778458998004e+00,9.343799177404996797e-03,-9.880762478204848875e+00
1.551655899173044029e+00,-1.210909048271981842e-02,-9.891222812654731911e+00
1.581550133112547440e+00,1.431225754530626509e-03,-9.889539280590007309e+00
1.597173689839898048e+00,-7.024677262387655878e-03,-9.907912213754295649e+00
1.637999351027551231e+00,1.298710996967752593e-02,-9.922850405298683896e+00
1.651293036388438829e+00,1.883989986918456006e-03,-9.921262584315552857e+00
1.669882388900240766e+00,9.423590970915770443e-03,-9.914806599575756607e+00
1.718446030684779524e+00,5.185803034071784570e-03,-9.911027108231092342e+00
1.738646838912379033e+00,8.139362795874795567e-03,-9.922504965659170395e+00
1.763280932503276777e+00,-6.257851947947298821e-03,-9.913645259150042577e+00
1.780015303592155096e+00,7.950039156328900236e-03,-9.929757947274493901e+00
1.790975126571412002e+00,1.480112740614912548e-02,-9.934012927166914864e+00
1.830526153818909707e+00,9.534236908077817554e-03,-9.940851095635066415e+00
1.856679492492468331e+00,-2.001854125446097914e-03,-9.940231521499370615e+00
1.874942701717183358e+00,-1.807721105299718361e-03,-9.945355713207144177e+00
1.918160685939954924e+00,-1.401626350631625904e-02,-9.927627547058191837e+00
1.943279645434799585e+00,1.091421142258193044e-03,-9.931219091241263897e+00
1.977208709794486374e+00,1.665087592953566880e-03,-9.939329727123240588e+00
2.020741007966506242e+00,-3.723536007113397925e-03,-9.938564512787328553e+00
2.054217951055018698e+00,-5.268428913450736405e-03,-9.955162727806351697e+00
2.085254007209282445e+00,1.248692866883196117e-03,-9.952915554267216081e+00
2.106835490653265364e+00,5.603790893635802930e-05,-9.938829934936256549e+00
2.156991591803937958e+00,-1.301896149145643881e-02,-9.945871403208878192e+00
2.161495770383069726e+00,9.019844930349536077e-03,-9.951032457674701348e+00
2.200016477513315305e+00,3.339457379808109545e-03,-9.948088173693230729e+00
2.244755453956567504e+00,-3.702398104477133949e-03,-9.961897117645046151e+00
2.245564737420733703e+00,-1.791134644827442743e-03,-9.943692757611090727e+00
2.291923543044356748e+00,-1.436400061108883148e-03,-9.954191068392052699e+00
2.320086817434653614e+00,6.775487488935055163e-04,-9.936083812964467299e+00
2.371066066651830617e+00,-7.771998737547113241e-03,-9.952324648416736252e+00
2.402114030536260714e+00,-3.007710549195909046e-03,-9.938691970707125733e+00
2.418126227339898904e+00,-1.629679010744043005e-03,-9.954289401486636990e+00
2.448992579408551862e+00,1.991862267211911945e-03,-9.949407159301747683e+00
2.488422520822577866e+00,-9.827986860015685763e-03,-9.924401207916002221e+00
2.518800502399584751e+00,-7.493013943563847472e-04,-9.935412609738829559e+00
2.558777278139315658e+00,3.232391478397061806e-03,-9.946488403756774233e+00
2.581939864360715653e+00,-8.357690139219837999e-03,-9.929207215384133534e+00
2.612473375374209983e+00,9.443438485261315685e-03,-9.931676215618457704e+00
2.645366103652195378e+00,1.397930886973570638e-02,-9.918303971363471305e+00
2.678905717803016451e+00,1.614046771769446845e-02,-9.918379189090153147e+00
2.694690561017312191e+00,-8.281832286139315189e-04,-9.933879337819030653e+00
2.733822997950689171e+00,-1.151383576631493169e-03,-9.902723661997127280e+00
2.768913045941112649e+00,1.000681907341540409e-02,-9.900695377203959424e+00
2.786845125930890621e+00,-4.931712444606660070e-03,-9.895907835334023517e+00
2.830387057567551601e+00,-2.105675705907455748e-03,-9.896955981917917811e+00
2.852871712546284133e+00,7.457724767177731709e-03,-9.892567098267873504e+00
2.887249871731761619e+00,2.129563733620674741e-03,-9.887916240962260517e+00
2.939367308388239675e+00,-1.653971787559295470e-02,-9.888365110331875485e+00
2.939383263626006659e+00,2.429202987970013623e-03,-9.880717583491890110e+00
2.972893777375639424e+00,-4.311307965839185005e-03,-9.874938889462880454e+00
2.997864317031776693e+00,-1.525235738492305461e-02,-9.881125960523128526e+00
3.031449596765897425e+00,1.426664473335467927e-02,-9.863021118985416891e+00
3.061211958539269862e+00,-2.006969456455143588e-03,-9.864659192028144119e+00
3.070372062489714171e+00,-4.754011391249972351e-03,-9.871786564885862703e+00
3.111223382564269446e+00,1.024782696222689693e-02,-9.879016664820836624e+00
3.148429865980736597e+00,-1.386259502870128973e-02,-9.851242760356285544e+00
3.176857574318628696e+00,-1.028665861101792740e-03,-9.844196221332957464e+00
3.217293043173062639e+00,2.652460312919776176e-03,-9.845196944817931950e+00
3.233549546993903068e+00,-1.768358837718854090e-02,-9.837379382835804265e+00
3.257498556273051626e+00,-1.677710269100273540e-03,-9.836669032015404213e+00
3.280251165807205105e+00,2.435733814848162291e-03,-9.833749070659580482e+00
3.318552267673156031e+00,4.266212101043435900e-03,-9.850144167345234791e+00
3.339361725018862970e+00,3.823530307219492365e-03,-9.809023875952634697e+00
3.376329981783921852e+00,4.332288752462444027e-03,-9.815361021471325387e+00
3.390350083135599935e+00,4.493284357269917376e-04,-9.815816007905356244e+00
3.422248115351557818e+00,-4.619151874257353303e-03,-9.796910744692647555e+00
3.450294064931467730e+00,-9.433980343468831298e-03,-9.788245418288337163e+00
3.464308365762911013e+00,-7.907158817758325534e-03,-9.785939182616735010e+00
3.498728666199937720e+00,-5.040971072027458644e-03,-9.793524815790902949e+00
3.532218320885680996e+00,-1.198629165402363347e-03,-9.787865933965676390e+00
3.559506951903233851e+00,1.780047047395336493e-02,-9.778426919557841046e+00
3.577016091191628000e+00,-9.619374182061869033e-03,-9.776632078343961751e+00
3.613678126137381597e+00,-7.274739710129268441e-03,-9.764866910393955379e+00
3.633771727613566149e+00,-1.038718202277929582e-02,-9.779088132092736529e+00
3.654862761638053570e+00,1.233327522505501530e-03,-9.747282979500557332e+00
3.686554797091188274e+00,-3.667620808153488048e-03,-9.748837372197744600e+00
3.716251772417447086e+00,6.052360129397468119e-03,-9.752847403409022675e+00
3.734417634246285811e+00,8.024336388289192434e-03,-9.729174722100433215e+00
3.745595953890189733e+00,-1.988038884665616415e-02,-9.711508916687337845e+00
3.793263893020561994e+00,-1.638325144313304560e-02,-9.727374593810228731e+00
3.791307645903037926e+00,-5.583910447264399217e-03,-9.701910404791018294e+00
3.823214644567702880e+00,-1.378128860011451455e-02,-9.699583266839761464e+00
3.855836951602969354e+00,8.188811667366496967e-04,-9.690875703048527967e+00
3.875519788012317335e+00,2.024455352739669770e-02,-9.693629284560946857e+00
3.921867993671284136e+00,1.270257800534514356e-02,-9.685951565279005138e+00
3.930268750268829603e+00,6.295562571710791762e-03,-9.668210465960992650e+00
3.945192933897764487e+00,-7.764294868142877608e-03,-9.687213003405307887e+00
3.975144816538826120e+00,2.757729084571091879e-03,-9.661534198083034042e+00
4.008470423324249410e+00,-1.670290370584574368e-03,-9.665024667888772569e+00
4.024477166858543065e+00,-9.992318747286987532e-03,-9.656116537655753618e+00
4.062818702211954403e+00,-8.290943664153472073e-03,-9.647339414684550363e+00
4.081474654087966059e+00,-3.997140771086921465e-03,-9.647066156250186708e+00
4.085700634987643021e+00,8.954060793621692466e-03,-9.631190531509707498e+00
4.107360991035789333e+00,6.697751622388026585e-03,-9.625501110751265799e+00
4.127003087305206819e+00,-2.830998220851096894e-03,-9.620031352308714645e+00
4.148214524269518755e+00,1.870709273263522184e-04,-9.604148186030991852e+00
4.193478009844559651e+00,3.174768613974353251e-03,-9.585081388245377809e+00
4.208054417005585357e+00,-1.118330099613097824e-02,-9.592688926748060396e+00
4.231756516827803516e+00,3.000048029970571115e-03,-9.599430281440660906e+00
4.226203929595644837e+00,7.968418152671154914e-03,-9.589569548893729589e+00
4.278446331453473306e+00,8.565633286545462285e-03,-9.562261234121638864e+00
4.290339564125060789e+00,-2.845559655909316553e-03,-9.569875144064051042e+00
4.322741056568440321e+00,7.704058533242794278e-03,-9.561156446846267087e+00
4.327376096462994148e+00,-1.447419119267731764e-02,-9.533166886843506660e+00
4.354977822491253647e+00,2.054662830168143411e-02,-9.558210496395025402e+00
4.375827930116948927e+00,-5.403204106626030047e-03,-9.538737309461392755e+00
4.382019199978761215e+00,-3.715530255398035060e-03,-9.539262948186253865e+00
4.423913063045599614e+00,-1.292983942910308146e-03,-9.527683281516958758e+00
4.431966006054583573e+00,-3.269969288424677545e-03,-9.511830552671183270e+00
4.468903811136126336e+00,7.049244458552999040e-03,-9.511978862211362795e+00
4.476846809653603820e+00,6.933947080566330717e-03,-9.493408443065913360e+00
4.512944193864301567e+00,1.373744543576365870e-02,-9.488344192991707615e+00
4.513226128119066871e+00,-7.722158384686195892e-03,-9.495891904830866537e+00
4.543692638805365114e+00,5.275441218606746058e-03,-9.463964895598111937e+00
4.557177043480399092e+00,8.440450367629366568e-03,-9.472804924986164110e+00
4.568391996840342806e+00,-8.716900479454604139e-03,-9.454444444383037549e+00
4.587729010797858109e+00,-1.374411699115323827e-02,-9.462625997386679089e+00
4.606399392099221224e+00,5.132702522182392216e-03,-9.470886890047436779e+00
4.631347901261133160e+00,1.495686352460640295e-03,-9.448931920431551390e+00
4.663345294857364820e+00,-9.287567316874673247e-04,-9.445942837414870397e+00
4.677332115757472764e+00,-4.136325063781712275e-03,-9.438200887243690218e+00
4.678822979479583033e+00,-7.738791223648140011e-03,-9.425499510938847081e+00
4.709304162526138704e+00,-3.168818677393154051e-03,-9.401255680663721748e+00
4.717790201783647497e+00,-3.335523478016416774e-03,-9.414361381972138787e+00
4.749246729840093550e+00,-5.449822683748087662e-03,-9.404864905679939824e+00
4.769433876798928829e+00,5.499572381023817846e-03,-9.401971594412183109e+00
4.793653234438433941e+00,-2.578135774186041292e-03,-9.386385163674177079e+00
4.802081369573883762e+00,-4.466133707965972040e-03,-9.361666200795756509e+00
4.832981846551083649e+00,6.810777802572155065e-03,-9.356360772898760558e+00
4.847321540319124544e+00,5.444264742349912319e-03,-9.353553717168241022e+00
4.852199632270615126e+00,7.920118890036404249e-03,-9.347785112151747455e+00
4.866183351677221935e+00,2.530116418696253672e-03,-9.342211750570578843e+00
4.894702335915087410e+00,-5.527548024670573927e-03,-9.328998783981257148e+00
4.901209730563939715e+00,-4.432430506256546457e-03,-9.326417004296427393e+00
4.928755960135648984e+00,-5.363941366687594676e-05,-9.320599307534862987e+00
4.969402165912780056e+00,-3.836599094630758523e-03,-9.318772723377660938e+00
4.962790110631932095e+00,-6.438420512577537093e-03,-9.305613822265890178e+00
4.987739759502054504e+00,8.114648171404628685e-03,-9.285319863479665869e+00
4.990609008804577584e+00,9.495955136872794716e-03,-9.292781886191347596e+00
5.014704648341462345e+00,-2.510902650722898408e-02,-9.298606915957446262e+00
5.033674161242895906e+00,-1.098510250631862251e-02,-9.268925659438785658e+00
5.060059477282718987e+00,-1.159800226771640595e-02,-9.270468491433007330e+00
5.059951602979722907e+00,6.323671433269701693e-03,-9.270545961346430275e+00
5.081514119136283369e+00,-3.264152181086761671e-03,-9.261825928558161891e+00
5.102454094773920978e+00,1.052243467547328733e-02,-9.235040863484561768e+00
5.103848021205628527e+00,6.922999347902772556e-03,-9.234366341262521871e+00
5.132541014906542465e+00,-1.239955684741323588e-03,-9.213693078497252387e+00
5.152995005594553035e+00,-6.846628076578490513e-03,-9.226579260752593825e+00
5.175168548995195295e+00,-1.893147086264114530e-03,-9.204742852748061921e+00
5.175618517016505216e+00,-8.025578842593973986e-03,-9.215008241397026012e+00
5.193462958971214682e+00,1.436979154608645885e-02,-9.193806406949523335e+00
5.209827955530531796e+00,-2.317533522500036820e-03,-9.201871336772880383e+00
5.230978327112192794e+00,5.870174041279088359e-03,-9.186113080709729317e+00
5.245281521178348783e+00,-2.852306482374735407e-03,-9.180637956027833724e+00
5.266244409613816124e+00,9.479727664541422183e-03,-9.174069148591931011e+00
5.283743192115477605e+00,-9.476263566275426251e-03,-9.176228280339223886e+00
5.287044520199533082e+00,1.066415934191386299e-02,-9.153552367686286217e+00
5.316027201169572614e+00,5.977656194787152148e-03,-9.159651528857656544e+00
5.323515147597877473e+00,3.319952400415268363e-03,-9.142698768135787191e+00
5.327999624049862604e+00,5.051847862784251096e-03,-9.122297211234023706e+00
5.357969577953263673e+00,1.496622743090529097e-02,-9.122815960248605194e+00
5.359735186737990098e+00,-1.283031444591190917e-03,-9.143725416844990406e+00
5.376330250383901443e+00,6.964701169621596074e-04,-9.113874958748061417e+00
5.398230215634135298e+00,-1.003634539652895064e-03,-9.090969465407873429e+00
5.417973280894029742e+00,1.191132785612811912e-02,-9.101805848541530963e+00
5.412108210572614375e+00,-6.036087644951784563e-03,-9.099848165872900907e+00
5.440073857850292960e+00,1.350842481037895469e-02,-9.072845902564301568e+00
5.444461330142289057e+00,6.348186395760149064e-03,-9.068416385879874753e+00
5.467360992223152749e+00,4.936769593652677070e-03,-9.064739459612567885e+00
5.475743679494822658e+00,-1.531281955928245377e-02,-9.058234440580013924e+00
5.504925984654412296e+00,-4.327020408621313867e-03,-9.045450274936067458e+00
5.510629963083346183e+00,-4.116815443251342979e-03,-9.032811739399102535e+00
5.517773019430110004e+00,-2.951698752939276461e-03,-9.038842710484507492e+00
5.552655836179343218e+00,5.722651636922980976e-03,-9.017202353078005217e+00
5.518930659173566511e+00,1.627460597673345555e-02,-9.020268022198267843e+00
5.569459947837302138e+00,-5.158187746964346988e-03,-9.011883325624415519e+00
5.591046028517038913e+00,-7.402569369530735341e-03,-9.011374703558628241e+00
5.594345715766344540e+00,-5.774662466956495890e-03,-8.983169059208771401e+00
5.598666820232735652e+00,-1.126794085233924492e-02,-8.989731707057261545e+00
5.623394202104686102e+00,-1.231196205591735156e-02,-8.992868166708907651e+00
5.640325882360004428e+00,-1.435022532305531675e-03,-8.970680148311318547e+00
5.660115865571582638e+00,3.602801932755039533e-03,-8.976696804164628674e+00
5.664212907273488362e+00,-1.162476025161597940e-02,-8.955247495900039212e+00
5.662329407828699424e+00,-6.111054084556146251e-04,-8.948112313451520805e+00
5.686622179273332911e+00,2.613909347770547367e-03,-8.960228187282924139e+00
5.686570434331059687e+00,4.628024853999617230e-03,-8.943450571750330980e+00
5.716389416966330295e+00,-2.416187339741530677e-03,-8.924035874194029105e+00
5.726937637419368343e+00,-1.490959444511832585e-02,-8.943982280972209153e+00
5.739644447414322670e+00,-4.628797721279910397e-03,-8.920875658593637070e+00
5.750412163456742221e+00,-1.404268792506513505e-03,-8.912886125471676024e+00
5.744339696672837725e+00,9.522745578294626589e-03,-8.902683915377840762e+00
5.772131534065987779e+00,1.312413431749447600e-02,-8.891963510002494075e+00
5.787923624206594120e+00,8.184554542663558321e-03,-8.895147458537657315e+00
5.793512769326906842e+00,-4.803839504202229299e-03,-8.868650380664934829e+00
5.810989828254774281e+00,-2.648057572184545614e-04,-8.872181608578262768e+00
5.811021598468984806e+00,-1.105518311338615084e-02,-8.861922209284308849e+00
5.825160081798304468e+00,-4.000660414768796198e-03,-8.859063565217144998e+00
5.836701890983590602e+00,2.240262119274234395e-03,-8.862616005129694940e+00
5.862726807120732353e+00,-5.306412781638966160e-03,-8.837720359769281941e+00
5.876590244518098416e+00,2.592610092830638542e-03,-8.824358418565175555e+00
5.879788895198819532e+00,3.412608677338716933e-03,-8.831263598247634405e+00
5.887576433800544073e+00,1.380411511141351431e-02,-8.822545739536513665e+00
5.920327912133970472e+00,-6.522356758423559185e-03,-8.818453589401197945e+00
5.922500253731001862e+00,9.591713750075170353e-03,-8.804254232077619591e+00
5.917543785263194245e+00,-1.390893121359470207e-02,-8.806020376047154485e+00
5.929284853801412680e+00,1.116778634450678494e-02,-8.798709953129819183e+00
5.959629092890973645e+00,6.381037306382680505e-03,-8.784550720721629347e+00
5.969534377221667576e+00,-4.032998288242280183e-03,-8.776360970592834931e+00
5.987608311377289105e+00,1.184572900520958379e-02,-8.766797253693633607e+00
5.988978285088551345e+00,-1.556665858017030647e-02,-8.771207812606904852e+00
6.001104374368468442e+00,-8.321437986761439157e-03,-8.765532254557069081e+00
6.008614721450079799e+00,-7.969834992857229017e-03,-8.755921517249404928e+00
6.019583875367873205e+00,5.063505265362039896e-03,-8.738780651189216542e+00
6.040015300451734959e+00,-7.133759210868694835e-03,-8.741688734406254824e+00
6.054775167343132480e+00,-1.249961334582903698e-02,-8.728112713678626733e+00
6.055706152259105579e+00,1.568911431009589654e-03,-8.727177621017199627e+00
6.070749400936299445e+00,1.552940191055109283e-03,-8.717345040146645019e+00
6.066280232405115491e+00,-1.188123801595079507e-02,-8.707384351553978163e+00
6.085690738043870951e+00,-4.061814368929371824e-03,-8.701505352186682529e+00
6.105601727537314893e+00,7.074110506882663220e-03,-8.684434733534851958e+00
6.109874562007707510e+00,3.966785963531871927e-03,-8.692685481212540921e+00
6.119606018826262428e+00,-1.199396654290246084e-02,-8.673141134472395208e+00
6.112875382220159359e+00,-8.655910510355980733e-03,-8.674554953707184879e+00
6.145089081355969540e+00,7.625723123017698508e-03,-8.682828424448032933e+00
6.146634104839614920e+00,-1.064646382998133724e-02,-8.656459062292102047e+00
6.155064257769669922e+00,-6.353335743832786049e-03,-8.650546835465458884e+00
6.144075408356315826e+00,2.670300187743836120e-03,-8.644029058591943482e+00
6.171863738570963598e+00,1.192709331760287254e-02,-8.642304110785568483e+00
6.194160550070537674e+00,1.223796133361149119e-02,-8.635589934400799805e+00
6.188583979559138193e+00,4.414243330342950029e-03,-8.635363066984730551e+00
6.220614526335247696e+00,-4.312815585321624727e-03,-8.618278838333690572e+00
6.210106915158871033e+00,-6.303638046850646706e-04,-8.613316966642416972e+00
6.217633086681068733e+00,8.831161384479381191e-03,-8.605605496865175397e+00
6.237532623519887132e+00,5.438061613508803765e-03,-8.615145152874763568e+00
6.256803471839300634e+00,-8.025261348038449302e-03,-8.581074255610049661e+00
6.249624023592983413e+00,1.308696652524091522e-02,-8.605620008273216826e+00
6.261829693696870258e+00,-1.901256259772395908e-03,-8.555860092404484973e+00
6.266664894773968264e+00,4.126770520784282976e-03,-8.573332243912439310e+00
6.293197912309373976e+00,-8.030319598287032068e-03,-8.564856959060287878e+00
6.293906549476779411e+00,8.462187263356991951e-03,-8.574423725130639440e+00
6.297093981629839909e+00,-9.698054218770701322e-05,-8.543094110413486320e+00
6.312157885730496076e+00,-3.505727276769987936e-04,-8.556282570093754813e+00
6.329835783141826155e+00,6.781780247989368030e-03,-8.522326733038587676e+00
6.326851256079025987e+00,1.497716206448143151e-03,-8.533409895833029779e+00
6.335492620076278669e+00,5.534267749296482115e-04,-8.523432064342912895e+00
6.347987569517061779e+00,-5.352345884623872091e-03,-8.517375630672216147e+00
6.346233539557284864e+00,1.787225100935224079e-03,-8.525999400959532792e+00
6.371528938175061718e+00,-6.291334813229913087e-03,-8.506587240142986062e+00
6.367787623709486589e+00,-4.636679514094344890e-04,-8.493934274493282643e+00
6.378223136891562284e+00,-1.063834595946586310e-02,-8.488897300432606485e+00
6.379361805033196831e+00,-4.242234265217360335e-03,-8.489472512906949930e+00
6.408476863015485137e+00,3.179350493685665323e-03,-8.482623530711393300e+00
6.403320610919268852e+00,-2.672500772493525707e-03,-8.485144246929420930e+00
6.434072579654233515e+00,4.788675625589919327e-03,-8.469904201793545084e+00
6.426331040399306360e+00,1.443450240333284638e-02,-8.442334060644736127e+00
6.437883152227033001e+00,-3.855899886606871559e-03,-8.467368077279120442e+00
6.435911923190663408e+00,1.083088269743721736e-02,-8.465681697598217426e+00
6.443451490222420475e+00,-5.035443508184995511e-03,-8.441442971868600154e+00
6.457948385955358361e+00,1.181292767676676153e-04,-8.438888635281754702e+00
6.460506222665123310e+00,-2.035526550900886716e-03,-8.437966510993106795e+00
6.482368778995298619e+00,1.137719508663606778e-02,-8.438626452740635386e+00
6.485316755406590694e+00,1.691790454744440328e-03,-8.430786750147079900e+00
6.485205214838971166e+00,5.714633258076596764e-03,-8.424571415869392510e+00
6.504551366434633941e+00,-4.248730425576544316e-04,-8.422646134820780617e+00
6.511440226719823698e+00,-1.699604165004423928e-03,-8.386376626763162534e+00
6.533978241332859760e+00,-2.994718930175381110e-03,-8.404450323272415702e+00
6.529966422233454360e+00,3.777350456588103329e-03,-8.399995431983910521e+00
6.516201992942772137e+00,-8.629816002815093650e-04,-8.396575689754868677e+00
6.530372426542544240e+00,5.499087815912882989e-03,-8.386727224564490157e+00
6.546591337148117695e+00,-3.131743790940674267e-03,-8.368016789424515878e+00
6.561831818451405063e+00,9.202904057235504129e-03,-8.369260886742942773e+00
6.577809295900704178e+00,-2.951818069209999427e-03,-8.355223795120144459e+00
6.562101038402872177e+00,6.526270572420769453e-03,-8.357130587050464854e+00
6.589356554208817940e+00,7.544917094186474535e-04,-8.356890348221860165e+00
6.596103239280552977e+00,1.367918998975961760e-02,-8.346889409595220854e+00
6.596596058605422641e+00,1.595699952692679682e-02,-8.339486494080288637e+00
6.606335910590376947e+00,5.983022562831701550e-03,-8.326322434104538317e+00
6.614635887659593649e+00,1.091574091837571939e-02,-8.314545140401023104e+00
6.617198411033537120e+00,-1.655169058255640674e-02,-8.318910374173073663e+00
6.620514185766580795e+00,3.146883573741183961e-03,-8.312074573305711311e+00
6.627428907909762579e+00,-1.399384785407891980e-03,-8.322503426529294757e+00
6.644073700774815627e+00,2.591849924005744550e-03,-8.301616366372748246e+00
6.643351684912613742e+00,7.804474899419883670e-03,-8.312844105430000852e+00
6.661563412136869644e+00,8.473604990606501373e-04,-8.287451656214216200e+00
6.664637115448070581e+00,-6.954355118946052398e-03,-8.284819860670042502e+00
6.667270546865832870e+00,1.354424618784532417e-03,-8.284407219060497596e+00
6.678524214906143008e+00,8.537251623517604776e-03,-8.270453518721986086e+00
6.673204800841618045e+00,2.529599161019687164e-03,-8.270874854482432426e+00
6.687583883580511035e+00,1.002254684417778867e-02,-8.259353880210964505e+00
6.703199017648274527e+00,-1.943725556706890319e-03,-8.244020939833058392e+00
6.703093482199761866e+00,4.321884740438488963e-03,-8.251212919270553670e+00
6.714637754945441017e+00,-3.858900772949476303e-04,-8.256443825505863643e+00
6.726832212184747917e+00,-5.447024232895989783e-03,-8.241477493779287400e+00
6.729711526109940500e+00,-1.207669311016346982e-03,-8.229662650388780420e+00
6.730689556507839733e+00,-7.291055250684868108e-04,-8.232893709674810268e+00
6.746674115476213984e+00,-8.743884419262902552e-03,-8.213120672847100678e+00
6.744026142747403973e+00,-1.602108972254785713e-02,-8.237109152150033253e+00
6.742755823680339766e+00,-1.297685043137182526e-02,-8.210527996712949417e+00
6.767349169043671786e+00,-1.233222762806615580e-02,-8.211351697119075865e+00
6.777622699538270901e+00,1.495831946399547039e-03,-8.193478756187868584e+00
6.782452207410278433e+00,9.847435023051208380e-03,-8.189528451567731793e+00
6.772902669688737554e+00,-1.678422483754095102e-03,-8.196170927070577150e+00
6.778027324002608545e+00,-4.372936408238376274e-06,-8.188021704105173271e+00
6.788626193057202052e+00,1.712627745178056616e-03,-8.178144211841196665e+00
6.794003381859885060e+00,3.297811580194845611e-03,-8.185366345920847664e+00
6.797592896194164069e+00,-5.918779006892936623e-03,-8.188845183540573558e+00
6.805254063365668848e+00,-1.641515695910278350e-02,-8.180107251583910610e+00
6.805128660912849625e+00,-2.716303236509034352e-03,-8.161705843483243683e+00
6.822038535648954571e+00,2.604131617555990267e-03,-8.148673594141829568e+00
6.833399605327128867e+00,-8.733374319374712785e-03,-8.127047606717010098e+00
6.831304428902853942e+00,1.691285127489582096e-03,-8.135392982818469676e+00
6.846970059447698098e+00,6.323908634449008567e-03,-8.145924993190391206e+00
6.852975393045900532e+00,2.288266660856369799e-03,-8.123949224365295763e+00
6.855382156590174247e+00,1.680202789751239663e-03,-8.139234786069440730e+00
6.865563723337571922e+00,3.560804424790608384e-03,-8.123732548746840365e+00
6.856514646771957544e+00,-1.408349520011688630e-02,-8.121789837761699715e+00
6.882749310928861775e+00,5.528578825326224168e-03,-8.119436412166193051e+00
6.880054178440437873e+00,4.002628718659009301e-03,-8.108694801821684450e+00
6.862987866333485343e+00,-2.045444702367212129e-03,-8.107678067177792158e+00
6.897856667767377381e+00,5.152456802412198021e-03,-8.109053216318519830e+00
6.885994065561447997e+00,1.527584651934516501e-02,-8.102149723611137944e+00
6.877681530807982391e+00,-1.454355176211618922e-03,-8.083561333243308056e+00
6.904384782444617841e+00,9.697707999187475669e-03,-8.092993641004584404e+00
6.908539068586360798e+00,4.103373833117270053e-03,-8.082089268047008446e+00
6.921013189089478601e+00,3.044732327391755280e-03,-8.076743998572478489e+00
6.908535595013960418e+00,-8.054969302690326294e-03,-8.073711753972391492e+00
6.932088790776466780e+00,9.764950522573105987e-03,-8.075982747062166567e+00
6.927271707736917250e+00,-1.173969810010028030e-02,-8.062016470188844153e+00
6.934612365263458145e+00,2.462196075463874215e-02,-8.057772184305656893e+00
6.938572951910058073e+00,-8.068988726934541887e-04,-8.059191410740188743e+00
6.940295548909653611e+00,-4.189652691477382604e-03,-8.053567558963287354e+00
6.954197634759586855e+00,-5.722230235474729150e-03,-8.049544869201318065e+00
6.978766637340779511e+00,1.034246734842978951e-02,-8.050253979345006528e+00
6.986064797919103064e+00,-3.405765856097998315e-03,-8.029620578422084876e+00
6.981440125944915032e+00,4.489232104834989549e-06,-8.012239054418769157e+00
6.978297557678133423e+00,-7.027091681191449451e-04,-8.022305242226909883e+00
6.974339719023114448e+00,-2.642916251787803209e-03,-8.005408822667297031e+00
6.983052823282938526e+00,-1.055143179658147960e-02,-8.010380578972336352e+00
6.991478273134051236e+00,-4.943286228947921246e-03,-8.012861482877973174e+00
6.994158781376885514e+00,-1.058943118684490224e-02,-8.005450109744272069e+00
6.998709208545065508e+00,3.401512943461811045e-03,-8.006078719173354230e+00
7.007297793441106037e+00,6.520685168370064441e-03,-7.993645381658776472e+00
7.013626054125844611e+00,-5.593760861920555466e-03,-7.993067048842213751e+00
7.006399989333305989e+00,-2.020553756671222660e-03,-7.993926445626635235e+00
7.031872905663302475e+00,-2.559181636954538722e-02,-7.980314532721500598e+00
7.017801851416464842e+00,-4.498484441892062514e-03,-7.977635161851822865e+00
7.035565087099209691e+00,-4.217724334246462925e-03,-7.967301649791130203e+00
7.034442772064910088e+00,2.989810884760905028e-03,-7.960280458101878232e+00
7.046088392843617321e+00,-1.649885683382934162e-02,-7.964457875130337428e+00
7.038586819250618909e+00,-6.652271052623884816e-03,-7.948907637484707855e+00
7.044799579211185936e+00,9.916234336848486070e-03,-7.959349785577817471e+00
7.049669771746430058e+00,-3.293226401877127289e-03,-7.959086187304992954e+00
7.067734041710351356e+00,-1.251940640528806381e-02,-7.921696371171561779e+00
7.069490723906179497e+00,8.448980504693082497e-03,-7.935067974120829426e+00
7.072443061904105654e+00,-1.411575159052852121e-02,-7.937504495510455449e+00
7.081053176274318517e+00,2.685796788759891446e-03,-7.914659430722125855e+00
7.064844890641216679e+00,7.840831230135892477e-03,-7.929799887017543014e+00
7.075310647608036518e+00,1.113813635012223489e-02,-7.924688939314042280e+00
7.089384101198085375e+00,6.194408066988399408e-03,-7.917730355416648713e+00
7.108443887219673130e+00,6.119363795348563978e-03,-7.900748073745003097e+00
7.104655043870286235e+00,-8.011311155127847326e-04,-7.908872039264890574e+00
7.103020293136729890e+00,-1.196322809497158898e-02,-7.889435931773100208e+00
7.104526523582641140e+00,-1.108526016094054127e-03,-7.897164619763439752e+00
7.105493951613607528e+00,1.097420081589892127e-02,-7.899406686867863847e+00
7.111369935096625738e+00,7.864925017456524114e-03,-7.896425729528686155e+00
7.118466652295376562e+00,1.152559681604476555e-02,-7.876238917296157993e+00
7.112474497465527179e+00,-7.782903205741727344e-04,-7.876781701890404719e+00
7.122607709876294102e+00,-5.679609786002012134e-03,-7.877446956503574071e+00
7.144691029802361371e+00,-6.476021395989079409e-03,-7.870365994696143730e+00
7.131979913793095704e+00,-9.033418146286517278e-03,-7.878584010519160685e+00
7.129033847814518765e+00,9.560307927452196949e-04,-7.857426899205908200e+00
7.155037807151143348e+00,7.913121512453239956e-03,-7.859975288725618014e+00
7.158630525442954529e+00,7.823701237140817362e-04,-7.864356991627080795e+00
7.143079623034475745e+00,1.875414207926102549e-04,-7.854830824743451068e+00
7.165327080952485161e+00,-1.442943025494196167e-02,-7.843795449854153112e+00
7.154697007018375743e+00,6.374459800669324966e-03,-7.839525511349215492e+00
7.164640264035214479e+00,-7.846067072070170983e-03,-7.840308795288016164e+00
7.179251045566547695e+00,-5.917221401880482304e-03,-7.857204348468769695e+00
7.172153668544583915e+00,5.490561650169144790e-03,-7.818083630234666792e+00
7.185693635260005152e+00,-8.525944701216715479e-03,-7.820752185563931924e+00
7.177286578139116635e+00,1.422811800151647932e-02,-7.808234591799049440e+00
7.179671031409586845e+00,5.421087670027302519e-03,-7.828184765310127524e+00
7.190073113944296601e+00,1.083147208367064504e-03,-7.806584270480608545e+00
7.201652520825624570e+00,6.397671877013621188e-03,-7.810877223978780037e+00
7.209533379623261240e+00,1.288790367057504431e-02,-7.800401631303307326e+00
7.205174564121882064e+00,9.022505493931133949e-03,-7.799376534468409616e+00
7.213065193497739891e+00,-3.297546936899503015e-03,-7.799171101372485815e+00
7.199783834551234385e+00,-3.313356819331562172e-03,-7.794322833346740254e+00
7.225587737509354902e+00,2.418148068562952363e-03,-7.791336342016840888e+00
7.234117523903371705e+00,7.225931017575173629e-03,-7.802853440353628933e+00
7.226368356769518719e+00,-5.515962267941015851e-03,-7.773437857896027481e+00
7.221738788247590080e+00,6.957228957741153942e-03,-7.778440960393695924e+00
7.231210565669229595e+00,8.824330985729020999e-03,-7.771693924960355382e+00
7.240806651752640377e+00,-8.816451201389024703e-03,-7.784709304268576879e+00
7.258692682457838607e+00,-3.948242430548419210e-03,-7.760498493613022575e+00
7.243305170241605140e+00,1.935237674223201816e-03,-7.753930610691456060e+00
7.246940952410670711e+00,2.388220296611000010e-03,-7.763743747716286947e+00
7.244270741833469529e+00,-6.840723300516391228e-03,-7.742299812773029366e+00
7.270391402431336303e+00,9.170252428327316588e-03,-7.759261531735854867e+00
7.245301471162931328e+00,6.819818692879247093e-03,-7.748301522566489297e+00
7.268285606748314365e+00,5.944796420870564549e-03,-7.761402501723425829e+00
7.261757551905456687e+00,-1.738915886983122532e-03,-7.741133287360534077e+00
7.255107929397995647e+00,3.048793566050237661e-03,-7.736856860425059601e+00
7.278746120894289184e+00,6.348460444799051104e-04,-7.740249493007849146e+00
7.279606575928283085e+00,4.769515719601155786e-03,-7.727204545559041904e+00
7.280338412425027883e+00,-1.376199110257662027e-02,-7.729296158635344582e+00
7.286279752004574561e+00,-9.940300293579984112e-03,-7.740168601168531559e+00
7.285927899254138751e+00,9.218016694684205009e-03,-7.715606247576002552e+00
7.294468142611481909e+00,3.495281899763421143e-03,-7.705856232793409255e+00
7.305531909961021420e+00,2.854979080167393234e-03,-7.705349930355373189e+00
7.292018763881967125e+00,1.048218969720640138e-02,-7.712235929998176864e+00
7.293359192641805322e+00,2.200763988238300765e-03,-7.704949359238431938e+00
7.297686572673682370e+00,1.798992434833781087e-02,-7.706932330348540638e+00
7.311925471457963788e+00,1.203987323403099031e-02,-7.696753323754820464e+00
7.295651381649816081e+00,1.311726850653240420e-02,-7.709188708358245101e+00
7.310806438402421392e+00,2.156692689981878474e-03,-7.693256175427879207e+00
7.315422628948220485e+00,-9.386905911242864010e-04,-7.695948211573308662e+00
7.314178691866069393e+00,-1.740223602701711919e-02,-7.674806356206126168e+00
7.322729300534160046e+00,-3.492367962156354283e-03,-7.698622832911443226e+00
7.328818125682775353e+00,2.836090344186652148e-03,-7.683239763934182065e+00
7.329965026180945920e+00,-3.319352050128594224e-03,-7.676311311403432036e+00
7.355119357528464796e+00,8.417344771694300690e-03,-7.687210953203715391e+00
7.354973145121967981e+00,-1.927763593086101587e-03,-7.666757267903735240e+00
7.344589341156723350e+00,9.237259931950987787e-04,-7.669772610127925994e+00
7.346522445357388520e+00,5.779801425426335862e-03,-7.660129046788453522e+00
7.338312143295387280e+00,-8.341080861928865803e-03,-7.662311999520759365e+00
7.347195273365905166e+00,2.724945372740552717e-03,-7.667854735021267132e+00
7.362421093103289849e+00,2.355346936844808677e-03,-7.670836576164598242e+00
7.353402123375558652e+00,1.708074049116412724e-03,-7.635057418832894349e+00
7.355040285121373422e+00,8.166664401730482775e-03,-7.654870361945864232e+00
7.368145024028745382e+00,-1.968935854231392002e-02,-7.659589221777108214e+00
7.359382236510871422e+00,-7.270134431615815282e-03,-7.639840536575762897e+00
7.355263065905429443e+00,6.267911309596423293e-03,-7.628745603874943271e+00
7.372774678091333023e+00,-1.210032948527806854e-03,-7.611804001797722208e+00
7.381104864778158081e+00,-6.715785415450813665e-03,-7.626578128287522240e+00
7.369991263088680356e+00,9.853493032416570790e-03,-7.609945279429276788e+00
7.386066573231843790e+00,6.866482195793500477e-03,-7.622597575421574234e+00
7.374719530251364397e+00,1.874223096067313687e-02,-7.621794893715470032e+00
7.394949135394472961e+00,-1.931998110153856831e-03,-7.607198045632062033e+00
7.383335057097164089e+00,-3.221020594386852023e-03,-7.619394284310616605e+00
7.401974286617108767e+00,1.273544936282954183e-02,-7.621433242869104951e+00
7.410911318883555587e+00,-2.034296412949970767e-03,-7.607644089862532155e+00
7.395960186806876280e+00,-1.156688567332459340e-03,-7.607430906508668933e+00
7.419433267102546026e+00,4.609668870346413788e-03,-7.598136045415461837e+00
7.406658373465115908e+00,-7.549477463903464004e-03,-7.598215573630136888e+00
7.406356478849796865e+00,-5.031887543080297391e-03,-7.613890754778379844e+00
7.413792120389894436e+00,4.610835880540305361e-03,-7.594445810828133858e+00
7.392714155245327490e+00,-7.588885093042975309e-03,-7.579405129828064247e+00
7.403081285639625087e+00,3.425946113738744577e-03,-7.588853372512382123e+00
7.414913314146926560e+00,3.227389749325855050e-03,-7.582429748695050264e+00
7.434459981570828546e+00,9.625946150177963623e-03,-7.584268925525924132e+00
7.428227864143754466e+00,-2.791435480890237450e-03,-7.574506867579684055e+00
7.432154964553742360e+00,-6.065607337017362571e-03,-7.589814315898876451e+00
7.430279519479264572e+00,-3.130933819466535668e-03,-7.575605585253086360e+00
7.435887682089766137e+00,-1.234772334298244985e-03,-7.569037088255744727e+00
7.442384547988797117e+00,1.908526266689277925e-02,-7.563415577582476956e+00
7.431998252591882625e+00,-2.104720941220299211e-03,-7.557679746547753652e+00
7.448702504303786220e+00,2.519107527705833141e-02,-7.542961835341723820e+00
7.436446095256434852e+00,-1.194760788005674347e-02,-7.553626386204465248e+00
7.445207830898576518e+00,-5.927573522274281765e-04,-7.540377059830317030e+00
7.443622060097326631e+00,1.834060045526229692e-03,-7.547837654491669213e+00
7.449101407721384405e+00,-3.208562559254560936e-03,-7.556739899554244744e+00
7.453055205479007128e+00,-8.429894628242375065e-03,-7.544654038147184494e+00
7.451018008367518597e+00,-1.488803367597704144e-03,-7.561275429587364094e+00
7.464391002078742510e+00,4.167955524463358256e-04,-7.551206334890233407e+00
7.459854675965583937e+00,6.821362939131892129e-03,-7.524350951726091807e+00
7.473286876837236470e+00,-1.115241566229152777e-02,-7.546247031739444111e+00
7.458299444782752197e+00,3.186402136498701194e-04,-7.532109937308762326e+00
7.480499703561526381e+00,8.441366404440776502e-03,-7.517552853768540544e+00
7.463997964275660202e+00,2.399059181168303276e-03,-7.520412760539723962e+00
7.461900273840133657e+00,1.053324301652658161e-03,-7.528117185813083090e+00
7.469037680547025992e+00,5.737702045532759761e-03,-7.527470430264733281e+00
7.470376298891025613e+00,-1.020286683314146695e-02,-7.510908168107167882e+00
7.468967922379984969e+00,-9.255274480586479433e-03,-7.517057664289763963e+00
7.483326617633414557e+00,-3.149304475402222702e-03,-7.509420658565090001e+00
7.503337232654657463e+00,-1.348127462669133393e-02,-7.517235910880163630e+00
7.496366518668481582e+00,1.300878670504631608e-02,-7.508819110450431822e+00
7.497970620871241110e+00,-1.319588249840453892e-02,-7.482797569563421014e+00
7.497101134671176226e+00,1.159297518297191729e-03,-7.500939672263438496e+00
7.493264048835451163e+00,-1.281889405252350719e-02,-7.498347964803797616e+00
7.502409085669690114e+00,-7.486912373914703100e-03,-7.495180093655750220e+00
7.506760142975489103e+00,1.969822700086626757e-02,-7.484739781626502442e+00
7.518247505254963770e+00,3.531361258764434798e-04,-7.482017724765494648e+00
7.499245962396585696e+00,-3.099672742399592687e-03,-7.500453725346807765e+00
7.505876286818471854e+00,-2.546050258797955337e-02,-7.484642935922401819e+00
7.519460997501948185e+00,9.206084772634681723e-03,-7.491154257248504145e+00
7.498625350565947478e+00,-8.203345044256910327e-04,-7.484935797153632997e+00
7.504528801539348315e+00,6.832828413060506798e-03,-7.482514763890026899e+00
7.517201735213079772e+00,3.506286792439952150e-03,-7.473581126809363262e+00
7.505313163912968655e+00,-2.891770622486364208e-03,-7.468057347287006209e+00
7.520349136732896511e+00,4.287056701268233613e-03,-7.477970926707345534e+00
7.515208885907370018e+00,1.558839491799326842e-02,-7.479230075999229399e+00
7.517343747347325689e+00,-9.142771967797017063e-03,-7.460362414120197627e+00
7.525277384426527938e+00,-1.227093740907045025e-02,-7.468681578233509200e+00
7.537947134309091801e+00,1.080801589236756116e-03,-7.458303387132373174e+00
7.526552064010904708e+00,8.205065496801219839e-04,-7.459499481451270064e+00
7.524929203090153784e+00,-3.512318204712768822e-04,-7.453543490725923704e+00
7.532715305116996163e+00,-5.091052081060571874e-03,-7.451499755239658462e+00
7.529782772887845255e+00,-4.142513903762514056e-03,-7.447202947606940349e+00
7.548521917407756021e+00,4.935305939908589401e-03,-7.441883934642143039e+00
7.534776840166304446e+00,4.649756905467848818e-03,-7.439571769883120744e+00
7.554375284800976864e+00,4.458309228396806385e-03,-7.444685299376799570e+00
7.539124828719828919e+00,3.506529343667789522e-03,-7.434841813104641872e+00
7.540591175676291336e+00,5.702643839625004367e-03,-7.452521784922979897e+00
7.553770670655544528e+00,-1.423026606400205375e-02,-7.437778553794439418e+00
7.558828328875740965e+00,-8.531601725932810160e-03,-7.430223060640494204e+00
7.534325634040874853e+00,-1.598684979113674642e-03,-7.431039284114620891e+00
7.549677293169513526e+00,-2.728445576916739123e-03,-7.432626771448495262e+00
7.548798621691864774e+00,2.412280999016745350e-03,-7.427344343453103015e+00
7.555187200613204368e+00,-1.766234176627965238e-02,-7.414296153537300427e+00
7.550201812206533525e+00,-7.362590241889795106e-03,-7.422027230167502765e+00
7.570179702540332123e+00,-2.818716898720155777e-03,-7.415767266445596917e+00
7.551183336843002358e+00,1.570102093581770674e-03,-7.432487898976235741e+00
7.563667355797126568e+00,-1.062105837284997882e-03,-7.418204973126830915e+00
7.540192212512967451e+00,7.527940382733553509e-03,-7.423844016517024968e+00
