gyro_x (deg/s),gyro_y (deg/s),gyro_z (deg/s)
7.685348525052763946e-02,-1.988535816515167309e-01,-9.882610626289842215e-02
-1.606868267569134395e-02,-5.154455189636099333e-02,-3.660747056509652819e-02
9.092107401312772563e-02,-2.533445256079015426e-02,1.693720729800261143e-02
-8.771384720266971191e-02,9.219890064011658504e-02,-6.077173279213941848e-02
4.633307081834052432e-02,-1.285616697859660006e-02,-6.397087574389216658e-02
-2.856350532675548670e-02,5.949900275090956592e-02,7.690149547957053633e-02
6.912620933137895995e-02,1.489082183911196178e-01,-1.262747518215998344e-01
2.400239193951667765e-02,-2.216151432171312996e-01,2.608586863070471717e-01
1.701588246583319031e-01,2.762331003242233379e-02,7.439626606739278836e-02
3.161071885101586487e-02,-8.005068470566585603e-02,1.667649911500490856e-01
-1.186245896241511499e-01,1.565237653696294889e-02,1.332626661880250973e-01
-8.308421943840024748e-02,1.292284664726891727e-02,1.142891872617619042e-01
2.504093256651414995e-02,1.106329542690580175e-01,-1.009193405302993979e-01
3.198803228598860043e-02,-1.012950420598866252e-01,-4.765047179244973757e-02
-1.990688658983751080e-02,6.246235607175772836e-02,-3.142382824559940557e-01
1.410678213826401795e-01,4.739657877988074919e-01,-7.352145025766165798e-02
-7.457004045228628197e-02,-1.059896582251514986e-02,1.506355191259954318e-01
2.256711484857576444e-02,1.003453047236587958e-01,-1.125450602802697750e-02
-3.378495529224000149e-02,5.591618623013446844e-03,1.718205853926196153e-02
1.880993332140538932e-02,5.336743305424708483e-02,2.454590189569857972e-02
-5.302425846969390649e-02,1.930065862883001970e-01,-1.839726046535321013e-01
-2.011864416933018679e-02,-1.381522722351064859e-02,-1.317560790080387345e-01
-2.277375411945333217e-01,-8.015288654798413681e-02,1.981006284965902420e-01
-6.085256149986083968e-02,2.907076460920967123e-02,-1.376721120142338807e-02
1.060954924219269652e-01,4.301073168631282945e-02,8.583653735471791224e-03
-1.824753843423198296e-01,1.209411151449635569e-01,8.128345234059693170e-02
1.044839280380640556e-01,1.251739432105030414e-01,-8.836560712948007823e-02
-1.151833715807528413e-01,-1.525185036992655063e-01,7.525486468518871597e-02
-1.002945467506617394e-01,-1.169073399127808499e-01,9.873712887407673500e-02
1.510180813227492702e-01,-1.065055247729272958e-01,-3.698325457621275819e-02
5.257896690246035426e-02,-2.085659945885281197e-01,1.796517338742736336e-01
-9.822562772793629049e-02,1.767760814414467696e-01,1.480459805750643405e-02
5.264832463553210246e-02,-1.428160394669819241e-02,4.023422062787652270e-03
1.071306308617776537e-01,2.525361177202840868e-02,2.057691455428398847e-02
-2.490485741481894902e-02,-3.507130245035355864e-02,-2.201402587147247292e-01
8.565337942807353666e-02,-7.971643460143337800e-02,8.008952846805450498e-02
2.283425833836088270e-01,6.367925450056882361e-03,-1.172664816411564739e-02
7.398795984218049793e-02,-1.523150657700579336e-01,-3.623307154245475337e-01
-1.420742965291918736e-01,-5.812973981177144145e-02,1.880409030602203935e-01
-1.463881378434769669e-02,-1.600055661218006131e-01,-3.156209927614136990e-02
-2.103359321078746014e-01,-1.464548691765799882e-01,-6.330349011968322559e-02
-1.640058142614248538e-01,-4.883366368105578059e-02,2.903593205798448568e-02
2.634197065188469966e-01,9.550203059903157599e-02,-1.114849799515978956e-01
1.852073809731639639e-02,-1.595192660774023483e-02,3.138423712123702969e-02
1.097177475436886818e-01,-4.563858640587911686e-02,4.533794680441875780e-02
3.500154358724383644e-03,6.623075147894841308e-02,1.488980744815330826e-01
3.234183286331458046e-02,-9.935864519608365864e-02,-1.143080282927033953e-01
-9.900715276050463254e-02,1.624913275119553024e-01,3.289038134484337933e-02
-3.178948035343368700e-02,2.065119152125461932e-01,1.774517202772055158e-01
-3.847518664562388224e-02,-2.462036079248752785e-01,8.778055815103243120e-02
-1.487847116605743036e-01,-1.849105511483506992e-01,-2.056806239867217667e-01
-1.082930199583050646e-01,1.203960698026749765e-01,1.259639339206663523e-02
-7.813116756663925078e-02,1.810800266880676149e-02,-7.983019987718553701e-02
-2.269717312650566532e-01,5.260015369819227155e-02,-1.805716533668046825e-02
1.051500672401043113e-01,1.916990420008464757e-01,1.944840800590060675e-02
-2.407605170848273538e-02,-8.618610331039872063e-02,7.777389692458089310e-02
-1.982779153095437855e-02,1.421868393697476862e-01,-1.012154348540940940e-01
-4.027894907371962208e-02,2.294796918903719007e-01,-1.244391652851045277e-01
1.124534273237487031e-01,-1.108006350954704872e-01,2.463857111572468825e-02
-6.386614467966400532e-02,1.865272694831556291e-02,-2.257077607189309221e-01
1.005746864805779489e-01,9.413286404724402479e-02,-1.412221070866524764e-01
1.286073331371459794e-01,8.867354867470125801e-02,7.988515774916855883e-02
-5.245292642415961409e-02,-7.451696954512403159e-02,3.635513984166346968e-02
3.828478728826120725e-02,8.338245508996811051e-03,2.507186330000337263e-02
-2.807426094128144811e-01,5.933584642554175226e-02,2.072195494066809140e-01
7.622917578593199628e-02,-1.492785104812843211e-01,7.423846580867766998e-02
-1.017819448912847119e-01,-2.390680190065179178e-01,-1.309240653848807445e-01
1.447159427742371329e-02,-9.653072934109824255e-02,-6.718613746510410101e-02
-1.087514808693745560e-01,-1.614840383325316098e-01,1.541608685170927362e-01
-3.920532044413021361e-02,1.017277228950812934e-01,-8.348143949018706211e-02
-1.301122422665097478e-01,-1.246257128677702025e-01,3.769839512243828433e-02
1.311141019823447162e-01,-5.049985738740001007e-02,-5.922664491969099193e-02
8.295654261676962613e-03,8.095788908192269595e-02,2.170954399557137593e-01
1.607632844759778953e-02,-6.111304001283807130e-02,4.654550445444836926e-02
6.016866631210931321e-02,7.850564277964701410e-02,9.445510591057698635e-02
-6.109364344458208251e-02,1.737055126896874246e-01,-4.879848514505624735e-02
1.149784525669048235e-01,2.551426689534111794e-02,1.098898837378422394e-02
4.692587767429340362e-02,-1.823693570653010798e-01,-1.559641937796338654e-02
7.401556880060859711e-02,-4.352732805788057935e-02,-1.646237649230321287e-01
1.040103522850199524e-01,2.471571881930647099e-02,1.273687706203933123e-01
1.259917404801118995e-02,-7.967833390314287001e-02,9.029259069546424765e-02
-6.295946484593284431e-02,-2.262704213369947093e-01,1.508702111159632708e-01
-7.146407887453908037e-02,2.046161099447891540e-01,1.422463032991369281e-01
8.226908117257125674e-02,-3.030256754898533883e-02,-4.649465102944110723e-02
5.893974016020833706e-02,-1.998641182392721927e-01,-2.085392217030636874e-01
2.034743049442719331e-01,-4.985670482572992362e-02,1.954950696388338682e-01
-1.970415536431250336e-01,-1.293783049427897347e-01,-9.035209484256370716e-02
-2.439676460938599301e-01,1.145466208341368586e-01,-5.682283627694315747e-02
1.532774013215887354e-01,2.801492489255879778e-03,7.796511238119743781e-02
-1.078503540031149482e-01,6.080276867703946625e-02,-3.752557145157129487e-02
2.165089084566290401e-01,-3.374737657948809894e-02,2.006914704424685170e-02
1.100183521996499561e-02,-1.055916541509432510e-01,5.340196305867725424e-02
9.255062358202370554e-02,2.077868626199025348e-01,3.595739291482850652e-01
2.450218432245778247e-02,-5.062374530598122424e-02,-7.279228250344070561e-02
8.226977877437648135e-02,3.007658974405343077e-02,-1.070358288284992826e-01
3.069933951290364574e-02,6.152045552124550676e-02,7.596625121941184833e-02
-4.858117276267292367e-02,-1.339071956269826669e-01,-7.238492749049030284e-02
8.756123939009687052e-03,-1.691239162012447839e-01,1.567375838233879201e-03
1.911093107728788487e-01,4.689129219057200371e-02,-9.953664264826198038e-02
1.598478330054337870e-01,7.641023116212750099e-02,-2.174279370554216620e-02
-8.379909970156719512e-02,8.363149600414719609e-02,-6.352723915111167796e-02
-2.092877816730375762e-01,1.363685049592902598e-01,5.422332563365522828e-02
1.041452794047161151e-01,2.394146117666244578e-01,6.820338909089629365e-02
-7.917167337529457116e-02,-5.840168230328842552e-02,-6.514653841982596949e-02
-4.242396499485896061e-02,-8.510046013257697994e-02,1.732366100617440952e-01
6.007997442988157605e-02,-2.122368145041162238e-02,2.205585444100447712e-01
-1.938906173285686874e-01,1.295236989692235829e-01,-3.415441815611057474e-02
2.476720974623726201e-01,3.075907260384470182e-02,-6.245748127676292033e-02
2.235218179551960727e-01,2.347095584649956657e-02,4.969246415982982862e-02
-1.441207533592996914e-01,-2.940794936741099666e-02,7.825279463440909522e-02
1.542312425288668298e-01,6.665502339405157683e-02,-1.013657504255969649e-01
-1.235698752295713992e-01,-2.523257406692096944e-02,1.044271204868313027e-02
-1.343137409704188434e-01,-1.443454184925931916e-01,-5.589976081753755127e-02
-1.807142791434903153e-02,3.099369930112018737e-02,-1.715993074139527189e-02
1.881932770300448476e-02,1.597407757539994755e-01,8.531355937573199821e-02
-1.171860990267143965e-01,3.451470487973264806e-02,-6.250472082321234524e-02
1.032821643180818205e-01,-1.161536836947515798e-02,-1.107293474269874373e-01
7.029511112276090601e-02,3.100290820536581449e-01,-8.239874926244768194e-02
8.364919163645782862e-02,-5.238674528575219119e-02,7.743005057682313423e-05
1.255641090458728404e-01,8.318349982496066330e-02,-9.765739772650089412e-02
2.032429866636039847e-02,-5.329202401138374151e-02,-1.461278303524601863e-01
-8.612721476134750642e-02,-1.076188251746938371e-02,-2.406730131952883600e-01
-6.243265322947759433e-02,4.037553076384583356e-02,-2.562759306011465066e-01
4.295938174707639168e-02,-1.432952217801426453e-01,1.404848571958145775e-01
5.264447056477101865e-03,3.816270830434637107e-02,8.273223328930050247e-02
-1.988001657526380084e-01,2.692326534795205784e-01,-2.078504623160425391e-01
-5.795678615302377913e-03,1.142801811699568210e-02,8.734961681516635601e-02
-8.894871064076677325e-02,7.517250898447110086e-02,2.241300733624830011e-01
-7.876472565536498521e-03,1.409437174155162287e-01,3.855228086852320601e-02
6.867546871546968690e-02,1.671461504938025755e-01,-1.201462715876752824e-01
4.217400907821584888e-02,-1.284701381409497356e-01,-1.826206852295568228e-01
-6.018235685027915199e-02,4.514312715472499488e-02,6.396317555319945732e-03
3.133794994171195530e-02,1.502692398831508291e-01,-1.954382025112747223e-01
2.157676107155881984e-01,-2.595652263436536988e-01,4.670936748253932957e-02
6.060342675588527989e-02,-1.147661188604901655e-02,9.119073087024900937e-02
-1.510269640887728360e-01,-1.717331268436010083e-01,5.686433089066578184e-02
9.605518069148183402e-02,-2.955293659609038726e-02,-3.630406842195185724e-02
1.993574369333192264e-01,-1.651363619541681149e-01,-8.281264965587860349e-02
-1.109996043564194651e-01,-3.128835952543461418e-02,-8.348018683763329395e-03
2.180885225468128311e-02,-3.273322294678725208e-02,2.944942856011881216e-01
-6.886860133932216910e-02,2.086004697962732524e-01,-2.340851547464246063e-01
2.155069790569012211e-01,-8.009887391061341899e-02,1.092056824173487789e-01
1.064332602007186795e-01,-1.258662902594144539e-01,9.167294170064456404e-02
-6.706807432195709129e-02,6.286615005668372280e-02,9.680391516751153669e-02
-4.691596520425216077e-02,8.593413578939572417e-02,-3.503352246270391435e-01
2.134830902395875862e-01,-4.006217572340762256e-01,8.276445277819766133e-02
3.136256855870458438e-01,5.910098029756294565e-03,6.573922065869254594e-02
-1.053490960252045396e-02,5.100277534436589710e-02,-1.203620842052904871e-01
3.091330952384660838e-02,-1.209151591250134938e-01,-1.271748541645014406e-02
6.342471401744510795e-02,2.828204314897826976e-01,-2.193904466604999492e-01
-3.652175441121961741e-02,9.886240176219787679e-02,1.660656449019348724e-01
-1.395270986815613790e-01,1.171711543329578831e-01,1.217305719677282960e-01
1.889848792693522017e-01,-2.098170120719915210e-02,-1.393815126045555020e-01
1.861200446444800927e-02,8.676625656755961036e-02,1.739149819568617250e-01
-1.672908660907236611e-01,-1.573418196733445129e-01,-1.380470235739322815e-01
-1.090045290634401864e-01,-1.601680878777857892e-02,-6.727026861848080241e-02
2.085312003173401540e-01,2.018827861031491921e-01,-4.086558778383696244e-02
1.681268776782421093e-01,2.035090946727679539e-01,-1.549489399127523259e-01
-1.403572785740085926e-01,-1.799782758629649149e-01,-1.878009205478256560e-01
5.004602809516738721e-03,5.010156191947851001e-02,2.425283808004475572e-01
4.061396879496050744e-02,-4.574088083338753719e-02,-7.727854430812129694e-02
2.811601389908531812e-01,3.731878098334484584e-02,1.502646605733272689e-01
4.549767273374290266e-02,4.537597013178301750e-04,1.461726477376921740e-01
-1.697315520514398046e-01,-1.875558459891646032e-02,2.679065055396650814e-03
1.686028035717874740e-01,1.825046661777012247e-01,-6.712301302123589719e-02
3.536544294368496044e-01,-4.012145806269317577e-02,-1.639965727232944037e-01
-9.922777209735468562e-02,2.336133776077898780e-02,-3.270365595538389340e-03
-2.020353218473249987e-02,2.205916788254504990e-01,-7.804387825293192249e-02
-1.174644205319059637e-01,-3.633287045862904630e-01,1.860740053934851687e-02
1.176410180722393395e-01,-1.307915956263720758e-01,-9.631695650248074669e-02
-1.415020150202249138e-01,-3.301485513181448561e-02,6.137805783849004104e-02
-7.509477822663790381e-02,-7.050345850075129261e-02,8.328137230063484275e-02
1.071811355076497108e-01,1.720787000912530132e-02,-1.176668876656565901e-02
-1.393249989193441896e-01,-4.549931141067303786e-03,1.047443236578249892e-01
-2.599861054265305005e-01,-1.229579150604956719e-02,-1.511620097329565704e-01
1.350656031655191047e-01,1.485096060497363979e-01,-8.715944993977596533e-02
-1.040161733921665804e-01,-3.342203693604860887e-02,-8.155146373861944797e-02
1.325502134019785616e-01,1.482071710368776940e-01,2.941575141419033312e-01
1.338486753279549135e-01,1.302991572819816313e-01,8.157697164379826282e-02
1.064319657211871550e-01,2.180814975310960968e-01,1.752972098576854789e-03
1.104936366660551894e-01,1.296222303389935049e-01,9.312537924160561864e-02
2.553244633466025260e-01,2.609573948667029408e-01,-1.813890899799993350e-01
-5.609164775464853259e-02,-2.682378630143612136e-02,-3.801472050740406505e-02
-1.542421879420644015e-01,-5.909424744237268962e-02,-4.017432347118313207e-02
-1.761361671980876120e-01,-3.285059432717492289e-02,1.336664743398184862e-01
-1.491928950930549169e-01,8.278309712596798597e-02,-1.276122823212403889e-01
-2.213235345948759702e-01,-4.260750870649124972e-02,-8.442705028464286832e-02
2.835887034840632592e-02,-5.503256496403802212e-02,1.203000090659947924e-01
3.128686165107602384e-03,2.599311463898289487e-01,-1.125907589236068151e-01
-7.883992325963584680e-02,-1.130868984309134628e-01,-2.761725642362365396e-01
-6.553693022238310517e-02,8.370215959907202630e-02,1.247850667525326751e-01
-1.826886136454351772e-01,7.611613324809771153e-02,-1.276693652836264660e-02
2.419396468731994376e-01,2.266506727224210649e-01,-1.603899184504575248e-01
-1.080872126669232547e-01,1.036522048616081437e-01,-2.720933937939883362e-01
-9.303366563482858009e-02,1.138185335204005277e-01,3.156735548451630041e-02
-9.184043324497567773e-02,-1.242976956478340361e-01,5.081432724980907562e-02
3.923336737533680840e-02,1.739674707436311696e-01,-2.436673363198072761e-01
5.950523500065248161e-02,-1.634728836929450480e-01,8.889630066957862620e-02
5.689401106172311401e-02,9.579512750954573275e-02,6.393930093417922456e-02
-5.851034840892704175e-02,-4.675733314679134112e-02,-1.144618654450705736e-01
1.016028717103844153e-01,1.648430841605669495e-01,-6.046235346915723730e-02
1.156774762589682370e-01,1.118277155146243512e-01,1.449463331969234881e-01
-1.737757783154880720e-02,-2.782691851394498289e-02,-7.636600226171336332e-03
-6.691014345230729410e-02,-5.847018146409128925e-02,1.229334811853348558e-01
2.873326179599258040e-02,3.716225877166751818e-02,-1.095118902917533166e-01
-1.895116355996445401e-01,-1.018171519019759053e-01,-9.227385698439085487e-03
-8.652368267188723094e-02,9.288720345098029629e-02,-1.631023002166365476e-01
7.303407840025016862e-02,-2.153127818769765833e-01,-1.742323472419441133e-01
-3.269672873959487275e-02,2.038504139989044672e-02,7.114902258605376034e-03
1.606926118240748769e-01,-5.953917823924020913e-02,-1.347780815488070216e-01
-4.154388724089011498e-02,2.365965594854637644e-01,-5.439770616720366464e-02
-8.740295675720148594e-02,-4.473085696503488473e-02,3.324855515249745125e-02
1.610254724693626627e-01,-1.871803114556232217e-01,1.417375000186685274e-01
3.946780932268552367e-02,7.529779641964567949e-02,1.053636665187864530e-01
-1.072027541984010013e-01,-3.386138474619128647e-01,1.357523904884569144e-01
4.519537594960894994e-02,8.212501500500948848e-02,-1.365565133099273798e-01
1.970913905802981411e-02,-2.202051377973356441e-02,1.023802482159350512e-02
-1.824399881296800696e-01,1.483616983286441815e-01,1.646832135257427498e-01
-4.086034505888365919e-04,1.506321721282091464e-01,1.073304408233060614e-01
1.307825958135415689e-01,3.390803793792791787e-02,2.947328728838025449e-02
-1.469682240383291261e-01,2.050417451237746547e-01,2.814504509633232107e-02
-1.829991256822685874e-01,-1.271142781340052832e-02,1.075313113382454916e-01
-9.074315548346495452e-02,-1.916178217231394587e-01,2.010501894529366507e-01
5.810850928820571193e-02,2.199088949989348035e-02,1.591304433571006649e-01
-7.564866015040835889e-02,1.468870791144592791e-01,-1.742863633876056972e-01
9.974685798783342050e-02,-1.961079632674571915e-01,1.252462769299478862e-01
3.684287607561755745e-02,1.382042705129455859e-02,1.041805503818313827e-01
3.970445063254938317e-02,-8.000490288560581364e-02,-1.343080997410606159e-01
1.278058261149620789e-01,-7.140307188472015676e-02,3.353188599029482270e-02
1.388944333573492174e-01,-3.527733648546876183e-02,-8.726510455199591731e-02
-2.532467422259990220e-01,5.079417684957430318e-02,-5.186077778695406121e-02
1.647854981386827344e-01,-1.432471561543907090e-01,-5.146426096397937328e-02
1.373234808383869687e-01,-7.973664499161282893e-02,-1.198327593426717561e-02
-1.080896028218074623e-01,-1.170284756215674571e-01,-6.184759561232670844e-02
-1.191129257972157879e-01,1.190392728965446456e-01,1.341865993846441674e-01
6.337846681072317745e-02,-9.943663349357390047e-02,8.849234816745153720e-02
3.592110430288439349e-02,-6.900918985737782008e-02,1.059575138229758469e-02
-1.232779126428318155e-03,-1.936044447378870159e-01,-1.621710933304437163e-01
1.488143502728629386e-01,4.152606416184124322e-02,1.267278384138307290e-01
-6.419233983626983220e-02,4.156072642133926132e-02,1.142745559747095907e-01
-1.771428214779553201e-01,-2.949605907033818822e-02,-6.070178027643986091e-02
-2.206769353943860146e-01,-3.203062847059700430e-02,2.294501105485493853e-01
8.930298429424542161e-02,1.659194641070977499e-02,-9.591214546290327894e-03
8.430304755225878632e-02,-2.980724052555483797e-02,-2.578574298952808763e-01
-7.161337807110994269e-02,-4.991717247006967340e-02,9.749527685104085462e-03
-1.240212561094917870e-01,-5.034162798000091366e-02,-1.407449336094979686e-01
-9.112064288955337710e-02,-4.316627815057639400e-02,-8.282913443263564823e-02
1.359559435304072972e-01,-5.146877224344096474e-02,-3.457639848021417106e-01
-6.784785245636588968e-02,-4.958058516896187568e-02,4.412032618906130965e-02
-2.111421319578527800e-01,-3.592824821157337978e-02,2.041559597467506593e-01
9.579381706722482626e-02,2.059650085496803340e-01,1.403389811408991550e-01
1.462211202879709071e-01,-1.040631468515452462e-01,2.966944007989074511e-02
-1.200714885643528428e-02,1.766560169042492509e-02,-1.274926745016153606e-01
7.287939117989201531e-04,1.426673384898602681e-01,2.936373751163151025e-01
3.571244054515630012e-02,5.349279189514601074e-02,8.504941338047956878e-02
2.483686024717211005e-01,-5.492374270918127382e-02,-1.424931399113219532e-01
-1.672547967721113860e-01,-6.566826763639095621e-02,9.119831874673012262e-02
1.376205782587670368e-03,2.048125159350503988e-01,7.162785711097871544e-02
2.004504672085998251e-01,-1.058511668547587742e-01,1.387618158236623433e-01
2.362410174955889910e-02,8.256934113477160109e-02,4.266432720358924457e-02
-4.473356367342024020e-02,1.477232546419778025e-01,2.355343623582472901e-01
-5.595352466723518131e-02,6.020774243427336886e-02,-1.973963216189271730e-01
1.708406887738359026e-01,-6.336345608858522105e-02,1.690534577473107591e-01
5.024613182493360003e-02,1.163292314670179468e-04,-3.484491442033864350e-02
-7.371912105571976070e-02,-7.882164863460954310e-03,2.935516200881861312e-02
-6.819000392661173082e-02,-1.098355101124892652e-02,2.128877403715462580e-01
1.753226738630398185e-01,1.582747672699504060e-01,6.402188779100112526e-02
5.533512254600959218e-02,7.430761740536648632e-03,-2.535021308782698934e-01
-1.164261469343330080e-01,1.421784677177242440e-01,-3.408864633503860819e-02
1.569674929969043162e-02,6.005051945255811263e-02,-1.174300241882985929e-01
-1.350235854991776174e-01,4.048444611350122263e-02,-3.794191558995857472e-02
-1.875856558547536745e-01,-3.825635066932601275e-02,-8.846717791224831262e-02
2.244361103511592626e-01,1.375329360720176641e-01,-1.491930653993935041e-02
8.095917335461104425e-03,-9.241616024147666919e-02,-2.525758109891163006e-01
-1.064737652287221087e-01,5.500880329695486542e-02,-3.814391317598971043e-02
2.912625035028004739e-01,5.186645346679247259e-02,3.318475765684259643e-02
1.946614753896826755e-01,1.584684116159821299e-01,2.670267007628949162e-03
1.333374063342147309e-01,-4.664712619036105734e-02,8.883662598805536909e-03
2.117539731827183108e-02,1.040587428352445221e-01,6.677802881054037409e-02
8.298516464772703882e-02,-6.495659617164709076e-02,-7.081812442443546907e-02
1.724173270393375146e-01,-2.275556132432441647e-01,1.387101895350321135e-01
2.347981458669125623e-02,-3.383041226875971308e-02,1.047766340006152791e-01
9.722778234267955011e-02,-2.962781397271640766e-03,1.188436778892406342e-01
-2.258987688894802948e-01,7.539296774459267048e-02,1.532101624398926609e-01
1.686887829299670016e-01,1.528978286250183005e-01,-6.307002581102205685e-02
-1.808600339939740731e-01,5.042002811965244635e-02,-6.923582021994775793e-02
-7.036966084825066470e-02,1.350571864350086637e-01,-7.978774981518660381e-02
2.471024872518965132e-01,6.841153256411573735e-02,-4.229550165038024195e-02
5.089700685423817483e-02,-3.644378834993786814e-02,-1.545166073998622547e-01
-2.894708490960820266e-02,-1.007874746150293488e-01,-5.656716479208289544e-02
-8.974322396176187544e-02,-2.134959815582922193e-02,-1.557746455411970765e-01
1.563303253956244698e-01,1.256182169603151377e-01,-9.882438221961048486e-02
7.946018673155569312e-02,1.925718971905591159e-01,5.840525226984931428e-02
1.247211225505946534e-02,1.640362501459900410e-02,1.758660152227800311e-01
-3.827224422071227872e-02,-8.243490260585951968e-02,9.139263892141275686e-03
8.176047160497729172e-02,-1.010566612616279336e-01,-1.719708804937786495e-01
8.800442879232549254e-02,-1.367922360009889149e-01,5.530267313513402561e-02
-3.040360879877495454e-02,2.821492059504807082e-02,-1.102247505173188230e-01
-1.579845677689864503e-01,-3.404245395718825083e-03,7.082170772911207390e-02
-1.041390317103396829e-01,9.193089592727798909e-03,-8.722483345269169130e-02
-1.547773467618608068e-01,-2.827899313767975875e-01,1.931661464341933865e-01
-7.083313693078575890e-02,-1.286548670334939359e-01,1.187681735150607600e-03
9.766814861372104251e-02,-1.435317349484505345e-01,2.990525057515480006e-02
4.757584842726816747e-03,-7.091637369416563252e-02,-9.848861666547317761e-02
1.114490133974280484e-01,-1.633834142155495550e-01,6.513222467142198990e-03
-5.416093065782345145e-02,-2.237115551391874024e-03,-2.639614384834612984e-02
5.474119106438826016e-02,9.513884505553101001e-02,8.597802225178124980e-02
-5.227960480808305221e-02,-5.676412518038921606e-02,-2.016697010664621481e-01
4.340478219064697329e-02,-5.866685439969907684e-02,2.014415675508878234e-01
-3.046541199762692678e-02,-9.828861296367259748e-02,-1.317460561327921942e-01
2.712727460101353998e-03,2.128451887011213461e-01,6.180582213911038625e-02
-5.095731334736105199e-03,6.237822526080674668e-02,-4.530002041209026109e-02
-7.197808924282392273e-02,7.213191449298225755e-02,-2.224511343002296901e-02
6.604965120360237370e-03,-3.487430444189996981e-02,7.709942247277540295e-02
-9.999263525151357024e-02,-1.316606177717972725e-01,5.447079482788735882e-02
-1.423743815867828111e-01,-7.263726487568013257e-02,1.091416792774545091e-01
-2.768120001135739722e-02,-1.596661794751611518e-01,1.393339810899852649e-01
-2.298583765786194610e-01,-1.287019097093443087e-01,-6.440907547135908684e-02
2.085261243587721858e-01,1.198799457576466415e-01,-2.265582270826232703e-01
-1.826189599107152783e-01,5.610635089934874059e-02,5.827629479024652032e-02
-9.324642528186481705e-02,-5.454642666422087477e-02,8.089291098774226835e-03
9.985069403206627003e-02,5.081457523983178709e-02,9.193257543619479111e-02
9.915311579704076672e-02,9.261839986476816389e-02,-1.608119015488502709e-02
-1.936740599817402819e-01,-5.259514822624451746e-02,-9.672204365609406163e-02
-2.814624400010692223e-02,-9.916796282860158851e-02,-5.913183233445806070e-02
-2.813824104708235185e-01,-9.474363390301827892e-02,6.985445401699302836e-02
-8.019134347661693862e-02,-3.197757528994618070e-01,4.032851586273404620e-02
-6.870846260749841755e-03,-4.923192505679652164e-02,1.020887478410490157e-01
1.395023243679371083e-01,3.380480914355576960e-02,-1.986325996619345280e-01
9.460672771696762573e-02,-1.975348080051399502e-01,8.783814119458770164e-03
-7.728159498126739579e-02,2.090868492862822947e-01,-7.734243200309290356e-02
-1.433671014851790049e-01,-8.245782299741903631e-02,1.795794249273764132e-01
-2.438198702850920187e-03,-1.376233855865498842e-03,6.949325927162780525e-02
-8.926817787794293080e-02,2.736072611305305491e-02,9.312875071123465076e-02
-5.537720170008759990e-02,1.125108550266541857e-01,-1.646676819503429812e-01
-1.045721901571094459e-01,-1.170695235604534978e-01,1.763744046152437295e-01
9.517949769678621386e-02,6.582848360428839030e-02,-1.470239025686846494e-02
-6.735116609309614588e-02,1.848596692235102146e-01,-1.031562040027594329e-01
-4.971202514352456719e-02,-1.938610624816490824e-01,1.077892048870061487e-01
-1.398533356284019542e-02,-2.292798839653227561e-01,-2.340813654496845253e-01
-1.973725236215961298e-01,-5.857306465094437413e-03,3.021023698075207820e-02
-9.947055653515108134e-03,-8.326927169914367932e-02,-2.247497675172578993e-02
-2.680000688966824307e-02,3.357767854553842524e-01,9.052847184590444296e-02
-2.135772126585052111e-01,-5.708645117067044639e-02,-1.330156143969303262e-01
4.782683153863726694e-02,-2.086234780242530451e-01,-2.694410420603378098e-01
9.300820308783975393e-03,-9.189058786723856842e-02,2.372115940416170687e-01
-1.880242639606311689e-02,8.105148561596244028e-02,5.156359897863143499e-02
-2.663469839509972070e-01,6.217405690478756269e-02,9.547357997843525235e-02
-8.319623293630139249e-02,-1.847712881075054270e-01,-7.346186308381794094e-02
-1.641133863411689264e-01,-2.821208614542321832e-04,-9.673711891086903686e-03
1.212578400280157065e-01,2.221297519687999780e-03,-9.282669376149169094e-02
4.145365802126389776e-02,-1.247763448387044921e-01,-9.077266816824684781e-02
-1.413626940599570503e-01,1.236966116741823433e-02,1.030900161921188413e-01
-1.270091572252641521e-01,9.829357268230984324e-02,-2.430420118849591082e-01
7.862711422724596305e-03,2.838548962454217131e-02,-9.025926096540076715e-02
2.372261353507651785e-02,3.935535861512271557e-04,-9.942599793949742637e-02
1.736585352188625420e-01,-1.692729629185266149e-02,4.508674183928587653e-02
-7.825659705250928577e-02,-9.161691836197623229e-02,-2.422213424803604243e-01
-3.244557997711989411e-02,-9.818823504139612135e-02,-1.278596513811832980e-01
-5.084368356489906565e-02,7.727229328495530125e-02,-1.538038184728346969e-01
-1.245415400432094422e-01,-5.099571423691270228e-02,-1.831394076179300168e-01
-4.465171915894182442e-02,-7.008225625726585695e-02,2.330112168345028090e-03
1.829857897749190276e-02,-1.799805061178256782e-01,1.858304469624225130e-02
4.496669959889701418e-02,1.255687660805041295e-01,-1.213194348644286089e-02
-3.697215402534301948e-02,-1.979715121299176483e-01,9.003314922982315338e-02
2.348702520128978788e-01,-5.488205117023901847e-02,-2.129291139593336435e-01
-3.314324755294565175e-03,5.994046874668880996e-04,1.005791769548876891e-01
2.167047126852280348e-01,1.432269536545733302e-01,1.879251973824744015e-01
1.304322148438837314e-01,4.723175080185218477e-02,-7.158291176164824354e-02
-3.417083607716370208e-02,1.714076990062196604e-01,-3.850135040043178858e-02
-8.341142064274738310e-02,-8.881253743172608239e-02,-8.162627561845357815e-02
-8.875057133612510377e-03,1.294844138236458941e-01,-2.820213476408208950e-02
-1.319811725771304900e-01,1.886803811436430223e-01,6.514877012096044473e-02
-8.932254744051010623e-03,-6.362187004614847097e-02,1.624893432739909216e-01
1.205596724220741045e-01,3.831506757626473164e-02,-1.007473142890380063e-01
-1.377565772696587310e-01,1.599417431956859370e-01,1.144012086028858843e-01
-1.339253639072759128e-01,3.418919462715052510e-02,1.106835484160415134e-01
-1.136770176355196144e-01,-1.057731299104306688e-01,-9.289763677555545884e-02
1.171064467930614111e-01,-5.893616138685817823e-02,1.093822543198639807e-01
-2.457381338652649683e-01,-1.552427301773451340e-01,-3.881598092934656491e-02
2.218183412193028003e-01,1.804709425247313370e-01,-8.699341922141556882e-02
-6.096881456045288861e-02,4.649992834157763190e-03,4.227133408926109226e-02
-9.430289662462272571e-02,-1.104200689924281081e-01,8.532490774918612131e-02
-1.436172293784810927e-01,4.618408646094106229e-02,2.848034465597115705e-01
-2.068593597181205557e-01,-3.108777595597365592e-02,4.335650933316351208e-02
-7.916820619064843245e-02,-5.635720775952935552e-02,3.094734001523054556e-01
3.378169028065927670e-02,4.531114806374966775e-02,4.159076817764397610e-02
1.614330419702404984e-01,-7.701565392218868988e-02,9.015317705708532359e-02
1.873058260623431531e-02,-4.766744827946226004e-02,-7.851394912251605240e-02
-3.107421996650115009e-02,-2.533137282957382275e-01,-1.265587136292435633e-01
9.683281341381981544e-02,-7.303423304750952805e-02,9.784601359277320110e-03
-2.632270069680093388e-02,1.064495357729304120e-01,1.770183132342088850e-02
-1.251323790520685875e-01,1.041229954865087182e-01,6.463052993307182026e-02
-1.055310640899238400e-01,-2.269278284335173035e-02,1.445137594463039576e-01
-1.084585626771270017e-01,-1.700636353793075484e-01,1.615054812147932450e-01
1.588569573118895906e-01,-1.249102341166623623e-02,-2.480505304315226978e-01
3.020708451758299384e-01,6.086810924763619290e-02,-1.992282116070231632e-02
-4.964250807308136226e-02,2.651542449672183999e-01,1.264398372033984919e-01
-1.184535147462183607e-01,-1.938766668890394562e-01,-5.749112129941250093e-02
-6.833571895885387493e-02,3.215309334162470833e-02,1.662533309533608672e-01
1.992117393038811968e-01,-6.580930386922138886e-03,3.459986809590664403e-01
-1.299325610884774773e-01,-2.360261790540980203e-02,4.501292708669990539e-02
-3.361785636508527603e-02,7.691008052871693701e-02,-3.281848510565287813e-01
-4.646879485633328977e-02,-6.262338776354452186e-02,1.275859048694119868e-01
-4.628064328130241517e-02,-1.032926448346190712e-01,1.424246864100654486e-01
-1.083185149853467255e-01,-3.804632036740668993e-02,-9.622757826537498178e-04
2.049060566849132681e-01,-9.758788116504979460e-02,-3.412372528868320987e-02
4.659819781440081160e-02,-6.931416417006455721e-02,-4.594424562782087329e-02
2.054355689162201681e-01,2.406144017702713800e-01,-6.090259485153075997e-02
-5.689447028901451799e-03,1.144862066568771118e-02,-4.562765404544658759e-02
-2.683184004162399161e-02,-2.544059619176454179e-01,-7.152747732934229552e-02
1.762110735270198680e-01,-3.816287116533893103e-02,6.790622378203486909e-02
-1.828941916189263939e-01,1.632184548378085021e-01,-8.401990384077956397e-02
-1.741966182376139538e-01,-1.759177022273722413e-01,-3.130633832448789788e-01
-1.114063691559298991e-01,1.102974384018640813e-01,-3.046851545732150168e-02
-7.521956650328798233e-02,1.730309574430109743e-02,1.990571390439959121e-01
-5.839883840040918650e-02,1.166350048921374061e-01,-8.670228633027589338e-02
1.015859084401227602e-01,9.699466490309314320e-03,-1.065683901180497078e-01
-1.512563673741509906e-02,5.858617650409006158e-03,-1.434153304353352233e-02
-2.018859848869545004e-01,2.069826429395266454e-01,2.014226829878569269e-01
9.648866490623182746e-02,-9.948764916381908074e-02,-1.141219695747973523e-01
-5.520955369827363485e-02,-3.088551897648996944e-02,7.370562684732784309e-02
5.791785588591639999e-02,1.909304804288177171e-01,-2.168967874351340197e-01
1.246186449438819099e-03,-2.412074236834103325e-01,1.658023839866006044e-01
-8.369298937928104642e-02,-4.080272437708078181e-02,-1.220123823969536531e-01
1.303145452297335971e-01,1.212989008369168460e-02,7.015795509566062627e-02
2.405240660918790130e-01,1.107706677196972772e-02,1.606944580151205004e-01
1.382733568952354553e-01,-9.778160167384826462e-02,-3.382848340182365281e-03
-1.789636726365962383e-01,-9.800615834070154631e-02,-1.398128600329875126e-01
5.523515976316770160e-02,-5.298228756588918564e-02,6.103964564512358304e-02
2.151346869332872169e-01,-8.008427094079713371e-02,4.995047518691845406e-02
-1.025568814888809105e-01,-1.234139787268999505e-01,-9.211382938050144409e-02
8.229330516323414557e-02,-1.876705594252541798e-01,-4.229831646752754692e-02
1.683703083803702108e-02,1.677718490552388420e-01,-1.131504273581590420e-01
2.005430631805619202e-01,1.858739467622816041e-02,-1.435700630143324497e-01
6.054301802260522031e-02,1.446140564117759930e-01,-2.205232808429099731e-02
-3.838595099430712476e-02,1.329615383894899860e-01,-6.383681445764062545e-02
1.327762995927465606e-01,5.535897587978998863e-02,1.867159130687409130e-01
3.044451453469307900e-01,2.968359036874263640e-02,-5.117726573954603855e-03
-2.414217751005859058e-01,1.042462905271079876e-01,-9.320264649017286074e-02
1.261126034288921061e-01,7.268654431769425162e-03,-1.801834722912013442e-03
2.877394112615308530e-02,-2.580177612673481558e-01,1.694497276507010430e-01
9.065575570601082205e-04,1.439427105446704908e-02,-4.048300169642739949e-02
-1.440180816291434240e-01,-1.344521281020762127e-01,-3.319661112093896110e-02
-1.827296256492285664e-01,-3.463481815189677765e-02,1.310142763253908105e-01
-3.950727060115098027e-02,-1.224787775601013512e-01,2.674545513541001784e-02
-5.802714641554419100e-02,-1.529143690878068118e-02,1.197112803989997948e-01
1.551099447719616053e-01,-1.828695875497205470e-01,-3.469886405128292522e-02
-2.096597898993933853e-02,1.408525557520145244e-01,1.228225011411258338e-01
-3.379922981388269188e-01,-7.806679664410380581e-02,-5.830603667472476770e-02
-9.900963027959315890e-03,2.068483709958006400e-02,-5.595276815351171024e-02
-2.500197536421449804e-02,1.778629332450918643e-01,-1.154034979487173346e-01
-1.133822253721995937e-01,-5.858779005264939249e-03,2.403891565833672084e-01
-1.290576491649688684e-01,2.317755950135288665e-02,-1.189723170032862404e-01
-8.547546101272796015e-02,-1.663480877336733221e-01,-1.594376736462013999e-01
-1.746410994837849506e-01,4.707094427407891579e-02,2.066705341256936182e-02
-1.317765755698177832e-01,-3.376870443765364604e-01,-2.147721732327958211e-01
2.670301113781424485e-02,1.407337909642465690e-01,-6.453598663294449200e-02
-1.053949562109991467e-01,1.016922895619804534e-01,-7.153184887493385657e-02
5.079795954850182399e-02,2.899423763260636916e-03,1.185286347015954977e-01
1.136395923815040898e-01,2.205010332397528972e-01,1.391994718821948709e-02
4.043699809161377216e-03,1.081661525871152468e-01,3.598237161151349173e-02
-1.952291649329015999e-01,-2.486185971449840840e-02,6.952087348723777482e-02
2.196703747700835818e-01,1.249190940705096758e-01,4.851790722754523166e-02
2.680872868114868648e-02,2.664000892328807074e-02,-1.054319887942271466e-01
1.187645310588911762e-01,-1.145464600745590283e-01,-7.034519431517094468e-02
1.590450680096883451e-01,-8.843048819043985986e-02,-1.155459613002071811e-01
-6.222952571378876502e-02,2.231885485361406463e-01,8.436740579953584673e-02
-3.639841472187262811e-02,1.303117093709719732e-01,1.549870684430360857e-01
1.658279606782751825e-01,-2.306619078762790209e-01,1.140282870396583659e-01
-1.137369552968050951e-01,7.111367261424234032e-02,5.247985363208878401e-02
4.239801502611022233e-02,8.985228485693709521e-02,1.045984512463587479e-01
-1.472484075426647998e-01,-4.040176610021355835e-02,6.091322819866649280e-02
9.383752252481453171e-02,1.009767717936030929e-01,-3.075388978329570561e-02
9.496292697597675733e-03,1.889493693343607672e-01,-1.023043258649732473e-01
5.042394476944900977e-02,-1.575988184746686116e-01,1.964773705929378778e-01
4.413178369152261299e-04,7.270336298784908780e-02,7.495974895504088631e-02
-1.358314202089757061e-01,-3.946249182511737258e-02,4.443006531612808674e-02
-1.967329974397187889e-02,-1.578513843146366058e-01,-3.093587571259274749e-01
-4.530553859681979434e-02,-6.272448373029124169e-02,2.354281641998254640e-02
-2.112238658383320741e-03,1.289518160473586694e-01,2.140348225260302883e-01
1.414361079113671815e-01,-4.951191513035585468e-02,-2.673966610643637234e-02
2.987176063955779282e-02,9.269292632517688035e-02,-1.882941305660623121e-01
-7.677844013838200365e-02,1.747385998443598820e-01,1.671127532742945343e-01
-1.110840031614510580e-02,-1.650757800354436117e-02,4.296115617787124065e-03
-2.852102919252089697e-01,3.210373183877266584e-02,1.172396935618983116e-01
-2.457543967681399544e-01,1.055940458537774213e-01,2.921373138056099217e-01
1.083899616998677956e-01,-2.304160601562109667e-01,-1.170433175057373869e-02
-1.861974367237001216e-01,1.093790308222670760e-01,-2.039981202531895577e-01
4.436349492831832136e-02,1.837751579669288093e-01,-2.802359246225409259e-02
-1.374024598036621414e-01,1.685074243332311539e-01,1.012774832276782111e-01
1.962558827363737254e-02,6.237823169405021240e-02,6.744337125655813781e-02
-3.063675055820658799e-01,6.925663006258388210e-02,-2.289043240344867114e-01
1.373721013985418904e-01,5.825229628154456052e-02,1.971924777486908087e-01
-2.012926565035312587e-01,-5.223593608393469617e-03,-1.411000958827167140e-01
-8.465647743029493591e-03,1.917016871919554055e-01,-1.075420272184362536e-01
1.704812890537260317e-01,4.547939181968180256e-02,1.675989780750247737e-01
1.614930669298110522e-01,-1.878942986382607094e-01,-6.697594654936941949e-02
1.614027302051002088e-02,-4.172954303890065164e-01,1.554884341427737078e-02
-1.832924771129069291e-02,-1.728625214027866286e-01,-1.194420264599246667e-03
-1.292860180522454883e-01,1.172798994421431207e-01,-2.038897396842352383e-01
-6.578123385274879664e-03,-1.746758899657776809e-01,-1.915044766205838828e-02
-2.733601843438051016e-01,-2.451680338292633321e-01,1.140631003709430408e-01
1.940211093597036529e-01,3.546524938183560904e-02,-6.357018243321878315e-02
-3.394779969861579788e-02,4.182848525428571607e-02,-4.348634259825549624e-03
-1.251640782228200799e-01,-1.017728839317539602e-01,-6.682910349249762683e-02
-1.090966521294929881e-01,1.891248851418787791e-02,-5.515217010253142121e-02
1.515982532450467490e-01,-2.202479380444522239e-01,-2.431854105498783836e-01
2.838672550223882984e-01,-3.117946983441845232e-02,-1.365414223124135629e-01
1.337533698792450487e-01,1.516356290227743042e-01,1.095743883902626503e-01
-5.871112489590469413e-02,5.871736540498374152e-02,5.641123289099906485e-02
2.616491414041215990e-01,2.755844524818261421e-02,-2.411406151491127803e-01
2.170669101829549863e-01,2.627907672130317882e-02,-3.816724889530277720e-02
-5.204228292893078173e-02,-1.210714408140158155e-01,1.296681102623380433e-01
-6.335443705994037167e-02,5.379558182792185811e-02,-1.694810194046785651e-02
-1.159086179001605904e-01,-3.418671342872595109e-02,-1.227377699361786589e-01
1.622562418836249465e-01,-5.688841520926721934e-02,-2.419272737461955203e-01
5.882013782178739658e-02,-2.730241115371370708e-02,-5.676346957934562398e-02
-5.661923792536894401e-02,1.869171406858104456e-01,-4.731952892256709176e-02
-2.415793819844113885e-02,7.519441331673278051e-02,-9.522822874631353685e-02
8.346657958786889153e-02,3.162803805580680777e-02,-3.118753494495222697e-02
2.344132100687437367e-02,1.056012048432718592e-01,8.723206215812222275e-02
-8.796234272165669166e-02,3.647881769160377791e-02,-1.193621959860806936e-01
-1.156863665928713480e-01,3.713140146639793554e-02,3.610581865095678633e-02
-2.597761915576347544e-02,-6.068180800087317334e-02,4.797831964461735099e-02
2.444702311524907246e-01,-2.165859693159962740e-01,1.350774643567894950e-01
-8.567970324691720485e-02,-7.250142413546048492e-02,2.343310728731192172e-01
1.892357967923361250e-01,6.475240686005959145e-02,3.195882071440756672e-02
-1.742521958399013415e-01,1.021564143575622169e-01,-6.844131113702081604e-02
-2.558629451057506943e-01,1.211660436157794285e-01,1.740303540445707620e-01
3.814648530559167083e-02,1.302826326463996653e-01,-1.621234375242427694e-01
5.886169610297775634e-02,2.491247978600243801e-02,7.148580453330270756e-02
1.644312920221804170e-02,-3.948902328746690255e-03,-9.706940358611554354e-02
1.282154729248717040e-01,1.953762029937554934e-01,8.059652950428874973e-02
-4.742211871671713624e-02,-9.040901867425026051e-02,-9.759100301996960491e-02
-1.937819918853514733e-01,-6.648734051827569214e-02,1.698425948978863620e-01
-2.022968522642621877e-02,7.163136548976600793e-02,-2.127162737118941105e-01
8.981928680227466155e-02,-5.675818968942085430e-02,5.498462512407160940e-03
9.122065503341739157e-02,2.230184069552269832e-01,-1.262908954943827051e-02
3.437106809031426069e-02,-1.934787657915075856e-02,1.128532880841245922e-02
-1.521967324081899831e-01,8.881143325947100930e-02,-3.968702908891352799e-02
6.621033711469521965e-02,9.564610001816277463e-02,1.997212532256711567e-02
-8.530605808422440928e-02,-5.920536859507443544e-02,1.636967762807860216e-01
6.843561459569799665e-02,-4.284447747769690173e-02,3.734139597050702836e-02
-1.828239771868596930e-01,-2.870835827943584578e-02,8.623237790623357324e-02
-4.471867805125297884e-02,7.483647973378416973e-02,-1.936005102875316408e-01
9.709349404354128410e-02,7.593002383110880604e-02,4.599486356222732414e-02
-1.036266612048671182e-01,5.026727360943748779e-02,1.266998684075636705e-01
3.112893074067063504e-01,-4.798900850600377327e-02,2.225411066754475267e-02
-1.048524414391280302e-01,1.185022641124039433e-01,2.801297392381933704e-02
-7.034084885308354573e-02,-1.863711975278730393e-01,3.712637210694093998e-02
-9.119075468357104586e-02,2.712808879071037516e-01,1.227955393446280852e-01
1.808842675850449444e-01,1.425704553958660192e-01,-1.632777970590414962e-01
2.566794674525558952e-03,-2.079972071778946052e-01,-6.624241833807967272e-02
-1.339660452214348207e-01,-1.322755733879115714e-01,6.554740034011111161e-02
2.236714072907617645e-01,1.641349155430366635e-01,5.069972038172829154e-02
-6.281849526225677383e-02,-6.443699440000262568e-02,-1.109626760729807843e-01
-1.428707481977875005e-01,9.493456678971065599e-02,8.198322471176157367e-02
-7.174960570059971121e-02,-1.032081897974452961e-01,-6.697363470471036362e-02
8.002215951054889032e-02,-6.388093135355615848e-02,4.944040723326886475e-03
2.676851100574365039e-01,-5.754385447923343611e-02,-1.248900322204120061e-01
-6.133883444844986238e-02,6.557823547554483823e-02,-4.831118501662722692e-02
2.432696736571206622e-02,-6.265950429594137339e-02,-6.634590983610125746e-03
1.295680095954657683e-02,7.443482531958334203e-02,-9.085553061041985387e-03
-2.116696521542676401e-01,7.744260731086607952e-02,6.479955040825566281e-02
-7.972755069637664505e-02,-1.927191949674521010e-01,-8.073375468916085818e-02
-5.022770986816642996e-02,-6.057279818682418347e-03,-5.726885954297644687e-02
-1.287892473334733279e-01,-1.847954292865324269e-02,-3.206065833043529600e-02
-1.019212822623209447e-01,2.857777951907535807e-01,-3.608172175689972061e-02
1.415721307002759111e-01,-1.131547736978236740e-01,-7.238957206892885493e-03
9.387653684543172117e-02,-5.018030472292904498e-02,-9.541638344396573268e-02
2.741188433654723894e-02,1.188734914284523755e-02,-7.312035234389588356e-02
-1.425866188788089961e-01,4.662051015842559598e-02,9.976311490644709790e-02
2.419620255540332748e-02,-1.430972854851084719e-01,-3.743669981877115888e-02
-1.006639422982288923e-01,-6.485060473778617163e-02,2.222488349514082362e-01
-1.581500715654262090e-01,-3.786596495697847758e-02,-2.881768655634379117e-01
2.849341184881538924e-03,7.534505126832526101e-02,-2.461582268833405890e-02
2.882301976036298272e-02,-4.777139677801658241e-02,1.346048801756561386e-01
-8.491922912071085683e-02,1.628595037675931723e-01,5.858326629632578525e-02
-1.979327096081259438e-02,-2.701242042627616247e-01,-2.941582677165680559e-01
1.542286650812995374e-01,1.230723020932212308e-01,1.485064000548524943e-01
-1.912092296964944815e-01,2.056452394227432368e-01,-1.619760456155093335e-03
1.935409747394337410e-01,-1.419414120453500183e-01,-1.499317454811634476e-01
-1.044424455066451929e-01,4.394552791824653942e-02,2.523727132348305147e-01
-6.060883038342328166e-02,-3.025673458841709670e-02,1.262907499557494422e-02
1.080487009690208611e-01,-4.947474688897141731e-02,9.143099062236844168e-03
7.554726446483574220e-02,-1.642217820580586241e-01,2.250296232471464541e-01
1.731324230071741022e-01,-2.359722294909146478e-01,3.601559079444379141e-01
-6.342760524904184072e-02,-1.100477557977987686e-01,3.361488769274383753e-02
-1.964175323518968161e-02,3.184888053839662891e-02,7.090206606996615757e-02
-2.668614768668574055e-01,2.547860489656477920e-02,-4.192418383572512480e-02
-4.694828206785674370e-04,2.769933432508477761e-02,4.244054347620193623e-03
1.601395720398503808e-01,-1.134001131069217044e-01,-5.042726421614057708e-02
-8.601928148650485328e-02,1.729825672605548592e-01,1.881529855289208047e-02
2.849620824865275667e-02,4.168574547196986918e-02,-1.132662297257975847e-01
7.747650631730836068e-02,1.039984769227188244e-02,-2.430622127179952671e-02
-4.038508042278344395e-02,2.912951381842234302e-02,5.839685534109773091e-02
-3.334735513911559618e-02,-9.224960281741619028e-02,-1.232532295013323287e-01
1.325990839995536824e-02,1.766028080620443350e-02,1.706402923924531245e-01
5.780834116612972723e-02,-1.694570496593936215e-01,3.963325659591633576e-02
-2.860819686780385895e-01,-7.886275725478170129e-02,-5.634747634633481550e-02
8.800740337919292500e-02,2.942481501305549765e-02,-2.744791758712237240e-01
6.392179156360247583e-02,2.322655444596201726e-02,1.972127797375740343e-02
9.445217716597073543e-02,4.169110162215309417e-02,-9.729483843358513462e-02
-1.653347169704604339e-02,4.438010213362347800e-03,1.639576824547136213e-01
-2.618578087008708796e-02,-1.825356041994055101e-01,1.088047296948038284e-01
3.285547079744123300e-01,4.116445677625953786e-02,1.430080925961393634e-01
-3.931726670379138144e-01,2.108171299272011134e-01,2.603627868006181401e-01
-1.810880577467744446e-01,6.741096698838151824e-02,-5.277375795224247684e-02
4.624095488234250539e-02,-1.296710186665132325e-01,2.920273538628404605e-03
-9.379957174321366942e-02,-1.064614457888024383e-02,-1.179506267287761534e-01
-4.843002039211967771e-03,-2.158614584839597950e-02,-1.468390630177830170e-01
-2.163994265205042983e-02,-8.839790397434499347e-02,3.247845557322253524e-02
1.033244194981550179e-01,5.087286230731050130e-02,-1.347519885109701721e-01
-2.267878179206491707e-01,7.662955624741046856e-02,9.861307186358649057e-02
5.834395022824383908e-02,-1.177689580638554417e-01,5.528317619695433116e-02
-1.278491779157099884e-01,2.546806005875776879e-01,-7.691586771941952456e-03
-4.517816111635206133e-02,-9.035192146177904726e-02,7.146025610270531625e-02
1.904452285181220950e-01,1.285647820092090665e-01,1.235180007451260609e-01
2.674511799760266595e-02,-3.662860479978250622e-02,-5.870388812995479266e-02
2.828614112158273422e-02,-1.271656862330360072e-01,-1.184798495931074641e-01
-1.478009154614388365e-01,2.048237785448398657e-02,-4.810814037639175172e-02
9.688102334603317101e-02,1.613797662957278667e-01,-1.227893093817824521e-01
-1.160449477373883959e-01,9.547498803197207451e-02,-8.570879526127045400e-02
1.248784169689822199e-01,8.050738708495715212e-02,-4.009614786404461229e-02
-2.388359039627602556e-02,2.131317774372393781e-01,-1.177435928603594029e-01
2.346850897594759677e-01,4.072326129397742765e-03,-1.493351860133655118e-01
-8.679249741110547922e-02,-1.621227042721077316e-01,3.538811308694729263e-01
-2.570531949756061918e-01,-3.373129291993166579e-01,-1.923755688822975304e-02
1.049450106509235668e-02,-4.411602357527919654e-02,-3.511053463774339162e-02
-6.575672460152232057e-02,3.136109655021206144e-02,1.400851775784281716e-01
8.270469987679612833e-02,1.176176759331511307e-01,-1.111713719250666671e-01
1.034646406554669135e-01,-2.758166768188102802e-03,4.725224744286159184e-02
5.972706741525125873e-02,-9.276108352611629748e-02,7.851929557820608307e-02
-7.290501061499292390e-02,3.058064473817909135e-02,-1.402757182919233542e-02
1.537991719634835552e-01,5.068323197072424624e-02,-4.067008321078456889e-01
-1.122435695605642075e-01,-1.388879359287951976e-01,-9.495200009810927932e-02
-1.631822502533694375e-01,1.929828713889113201e-01,1.102378925894847636e-02
8.009227101379846891e-02,-1.787061101490466583e-02,8.636682515506323432e-02
4.131056822778680221e-02,-4.968210361849617618e-02,6.924842134483275014e-02
-6.717303292085700928e-02,1.149331115650414764e-01,-2.891447685164951625e-02
6.579438756214822659e-02,9.866159298145396606e-02,1.440345522849719728e-01
4.427288561912468695e-02,-2.769932883970853132e-01,7.441817858343480196e-02
5.229842073334321773e-02,-1.702265841829833093e-01,-3.191453987637363210e-02
-5.480707919098995462e-02,2.747643478851516732e-02,9.554441439328283103e-02
-4.494745112811134730e-02,-6.959196993701063927e-02,2.524624183628556562e-01
9.400536523353547613e-02,-9.590269975754547871e-02,-1.145005757899001525e-01
2.470856746834474704e-01,-3.496859690808021975e-02,9.938369024730954460e-02
-5.245072259107776830e-02,2.484590727025628720e-01,-1.245887668752155009e-01
-9.244357522613780298e-03,-1.072429693738390782e-01,6.291598717430345322e-02
-2.375317897976768622e-01,-8.372269593899064888e-02,2.072661801706061624e-01
-2.344438853291643809e-01,-1.419939677400624232e-02,-9.758911928227345656e-02
-9.865844286691173581e-02,-6.976971296795678179e-02,-1.047724827912018264e-01
1.429928234794853037e-01,7.782553791924823675e-03,1.382316893573125038e-01
5.162376159789115737e-02,-5.175493882642300675e-02,-7.645161304606446113e-03
6.709064982277809785e-02,5.344121464565268487e-02,-2.873657633108182008e-01
-6.132771598412853353e-02,6.218268191343556683e-02,3.046150832563061517e-01
-7.940628598686648790e-04,3.614063828481529905e-02,-1.363265313553597806e-02
5.478205275790672818e-02,8.740852032348449263e-02,-3.155062849364703020e-02
-6.830222858884295312e-02,1.145764067351771609e-01,-7.994681196688856184e-02
1.119430560472507163e-01,1.843898102917254644e-02,-2.941257628668548785e-01
7.122993314709012702e-02,-7.349116901191622697e-02,6.508706370741718095e-02
-7.892522843686593237e-02,-7.850908598243712400e-02,-3.476267390188803735e-02
3.511751788140203730e-03,2.087455869595073593e-02,3.705187091513612724e-02
-4.895184665827320009e-02,1.058558085644662750e-01,1.895331464775093728e-03
-2.977725189647649137e-02,4.374934440350326803e-02,7.409154376328081805e-03
1.848394530213167963e-01,-2.984128823966861743e-01,2.577047947098407565e-01
2.930912581649980364e-02,2.997993049786904646e-02,-2.726879036286651292e-01
-3.133333290875878197e-02,3.334164184179166848e-03,6.785919229089801274e-02
8.543911255261733839e-02,-4.898468185887135118e-02,-7.737376890747327263e-02
1.521930340637565604e-01,6.486990939460166028e-02,-6.464261429117099111e-02
1.796207262444043384e-01,-6.030761680709911116e-02,7.382042667298117922e-02
6.232691229989505838e-02,-7.161665517026473415e-02,-1.379236971003350472e-02
2.421784080149385066e-01,-2.178410329030019271e-02,1.225927380829607699e-01
1.193417158865913708e-01,-1.219966344679050685e-01,-5.403254293346767406e-02
1.369335546104180346e-01,-1.039707008994938259e-01,-2.086735740310390885e-01
-1.318771324080598717e-01,1.390205743817007622e-01,-5.189485934279614021e-02
4.388491972384861439e-02,1.289414249683439040e-01,7.096740350884543636e-02
-4.104927462406913335e-02,-1.547097824038816960e-01,3.832355785369311041e-02
-2.700377447595899913e-02,2.140104801977120996e-01,3.527361367978058132e-02
3.321224315824256729e-02,-6.074487652719388897e-02,-3.016293967808435922e-02
-8.500620389100255192e-02,6.269987449706789472e-03,-1.784104575522809655e-01
1.309929213778314450e-02,1.715067747139710844e-02,-9.606939492060377617e-02
-5.381593135725372401e-03,3.995263540949631209e-02,1.398534968773068078e-02
-1.147543300070693606e-01,-1.282853605263226948e-01,-4.634278565067077166e-02
2.112539973662038439e-01,8.628165075144195173e-02,-2.046582978322698532e-01
-9.437480188008198767e-02,1.844088466386838709e-01,1.244936771831199052e-01
5.797014359977969294e-02,9.555234986421475007e-02,9.217818473877809407e-03
-2.108445903451992287e-01,1.039778694871549593e-02,-3.537108554303645958e-02
9.592177665927284491e-02,-8.642714383014181434e-02,-7.807115697239916385e-02
1.250794914914935829e-01,8.365830598962581410e-02,1.375734047867483156e-01
-1.740353331646918855e-01,-6.636757648830211853e-02,9.642994790577358311e-02
-1.234330797829526483e-01,-2.086136974520258203e-01,-6.926427705351417830e-02
-5.340499837491571172e-02,-1.943893838462265600e-02,-6.678820496638812609e-02
-1.056037319027871846e-01,-1.792257362846581825e-01,-1.477724152016039044e-02
6.511930250997625957e-02,-4.585977900051622924e-02,4.620692795019314125e-02
-5.296648342968639928e-02,-3.175954550510803193e-02,5.188562453838097693e-02
-3.361287427136230299e-01,5.213278593439250007e-03,-9.451168625363112752e-02
-2.825356090302743803e-03,1.062519090979571479e-01,-1.696131858173075269e-01
1.327126845098852981e-01,3.856361454120201676e-02,-8.363267398244017548e-02
1.971470680505792716e-01,-3.903390307338210768e-02,2.879745769301766262e-02
-2.424291897573949139e-02,-1.636548538032664701e-01,6.602733266037430493e-02
-2.641236308966732338e-01,-3.161343562543236091e-02,-4.620146596123698990e-02
-2.012593605154092136e-01,1.141398801362814713e-02,1.218220234992020146e-01
9.388397837714054783e-02,-3.343277025406547753e-02,8.884149923638395840e-02
1.380634996311694562e-01,-1.363292778634218605e-01,-3.149822184139924874e-02
-5.748892393964489308e-04,6.430236186068037652e-02,2.520076816242770509e-02
1.329657264324219934e-01,3.705559511863651401e-01,-5.893288585727035622e-02
6.526606680049995557e-02,-2.003831167732398125e-02,3.224878680108703155e-02
-2.771269098236369202e-02,3.434454133510212448e-01,-1.433055523482799354e-01
2.959242230977437993e-01,1.647973863013741380e-01,-1.386827422491522244e-01
4.297662193392622065e-02,6.505871869530539808e-02,1.393553151204348917e-01
-2.352458382645635504e-01,5.805074906554942571e-02,5.798257418755543846e-02
-1.517865499413070529e-01,5.836406219442459575e-03,2.298679140643871549e-02
3.260034317830675515e-02,1.049310914182750576e-01,1.762042740007437325e-01
-5.764873427337115913e-02,-4.454217963093184962e-02,1.616925157392838305e-02
-2.540041085762475559e-01,1.153795507586236925e-02,4.881041935608102650e-02
-1.121199717091859449e-01,-1.148557883575510030e-01,1.140706752961201109e-01
4.593764555521707288e-02,-2.534172047945992129e-02,1.788569919304212885e-01
1.067115403900248116e-01,-2.795759392254387396e-02,-1.258165778413516400e-01
5.736642476084596876e-02,-2.608819446791550423e-01,-4.944533387240600958e-02
1.996211617129540483e-01,2.156675873730312942e-01,-1.096676498326955157e-01
6.226063777316953596e-02,-9.264897520148326904e-02,-1.796226432426384911e-01
1.159081136822534552e-01,1.185998508433544138e-03,-1.657925818881675895e-01
-2.377682351607034172e-02,-9.821377400827294157e-02,-1.091856031450238462e-01
-1.030539633945316419e-01,8.482595466361246561e-02,5.985703285359652431e-02
1.092598631699274840e-02,1.014362480391689664e-01,-1.076081522262217760e-01
1.310354438798979337e-01,-8.821021995264630156e-02,-2.461061302022059250e-01
-1.706699000312243697e-01,1.989097210414735376e-02,2.427319376735911222e-02
1.402386592427112277e-01,1.016405696236857836e-01,-2.360665457351625585e-01
1.482837376760943737e-01,-3.866617461903879005e-02,2.195993932177142671e-01
2.940451336285386519e-02,-9.174956944342015086e-02,5.345970330669972542e-02
1.754004567126116187e-01,2.109710170484530023e-01,5.368091811825965315e-02
-2.130277509918364620e-01,1.690632501947181843e-01,-1.458148254683656886e-01
-1.315727529188301381e-01,2.682714586541996571e-01,1.891786106712939897e-01
-4.618998030524990722e-02,2.480932759539112020e-01,-3.765967146955786354e-02
1.894541241966140599e-01,-1.900438584422841082e-01,-8.991851157438039699e-02
5.144495047022277362e-02,1.700179910148123461e-02,1.467203495603932040e-01
-4.229644436175482997e-02,-3.903440896324755077e-02,-5.225210817206832337e-02
6.204919768636314031e-02,-7.825088747192954219e-02,1.514102119256700574e-01
-3.643116845630912926e-02,-1.382810754605156012e-01,-3.119796919461647819e-02
-1.966516652945683175e-01,8.415714542368679663e-02,-9.503636248100048867e-02
1.429499081509516267e-01,4.695989395207383899e-02,1.244491722935167216e-01
1.057866290002890397e-01,1.736031844959633474e-01,1.351537923058202528e-01
1.962498817534525097e-01,-2.800086487629662169e-01,-2.118439621189632527e-01
-3.917986088391627042e-02,-1.201304542937838976e-01,2.980075721603285197e-02
-7.782548391470973936e-02,-1.523434393815082527e-02,-1.890268831506298763e-01
3.260528742330529584e-01,8.206958634850776424e-02,3.115745487729398855e-02
3.927450076608973023e-02,-3.278302145212573602e-03,-9.981512147705698390e-02
2.672044332861781557e-01,-7.480762743417619307e-03,1.413652337107581050e-02
-1.442045518552975344e-02,-2.211454352430508238e-02,2.245556041408915474e-02
1.616725843724347439e-02,6.903525926285565550e-02,-1.015412583856829115e-02
-1.114425576807266255e-01,2.728141437620688284e-03,-1.067157636374659185e-01
-6.660493578301431017e-02,-1.300786444115877571e-01,-5.744925758985964387e-02
8.395309942665492298e-02,4.948127761906242345e-02,-2.201311222878550578e-02
6.076884107018262066e-02,4.469129178920257933e-02,-1.178917579341315774e-01
1.185680219194001732e-02,-2.366858154522721858e-02,9.778164075541559766e-03
1.192754008831627272e-01,3.526118599920652352e-02,-1.622064854521148569e-01
9.389788148854048833e-02,2.856786927729111289e-02,-1.174049567004243656e-02
2.470713060204350955e-02,1.211865900278462360e-02,-9.167389246492914368e-02
-2.337291856666201262e-01,-1.090261349298483617e-01,-1.292467994785294061e-01
1.099585087155688368e-02,-1.203070593337303013e-01,-1.061069854067407114e-01
1.856388279270499986e-01,-1.357731259574333493e-01,-9.921550443339222092e-02
-1.079246655873477845e-01,2.039734653244187120e-03,-2.600406768446341110e-01
-1.663978042528342638e-01,2.294328983180648762e-01,-1.676153681894676506e-02
-1.295462085819879816e-01,-2.114444537622298462e-02,-4.729941265674973000e-02
2.330613215680475345e-02,4.264479556476007821e-02,5.340410105798825552e-02
1.426622579280489578e-01,3.599015792547803905e-01,-1.191522371314803763e-01
4.465775308996294130e-02,2.450122713638529237e-01,8.087550653244759968e-02
-6.932806195926204118e-02,-1.029460142845692039e-01,1.500902871637414815e-01
-3.733462510669863926e-02,5.752526554172799483e-02,-1.762537364681021346e-01
7.077974466773421895e-03,4.856266785910900996e-02,7.328291104966952463e-02
-1.834070738939740791e-02,1.184939358226475559e-01,1.358788716956429443e-01
-2.881271158344998404e-02,6.905910553746066882e-02,-5.618435833472580632e-02
-4.581548619104968204e-03,2.185810291565193353e-02,1.282898171420376876e-01
4.569150797943679482e-02,4.360280884429151849e-02,-1.589370050796074484e-03
-2.209237272120831430e-01,1.718449336459691723e-01,-1.586408581729070455e-01
-7.836136065803159245e-02,-1.048968071452710121e-01,2.294596652453910826e-02
1.202619619772454518e-01,-5.757661265041464499e-02,-2.899044697763597522e-01
-2.148453671815042307e-02,-2.398195287848244595e-01,5.034260339592958045e-02
5.592390100770325972e-02,-8.924361316663634303e-02,7.875137251789236098e-03
-4.705298789427900946e-02,2.002707238141460677e-01,-6.928929302351420627e-02
1.433342435250984925e-01,2.057292981441700627e-02,-1.258301661553466733e-01
3.394171664537077443e-02,-9.857077818352961984e-02,1.666331969891916148e-02
6.115044636518728732e-02,-1.819970534082739066e-01,-5.211049697579318157e-02
-3.102140306804141989e-01,1.295871207279843951e-01,-2.505932265906994361e-01
-6.998457654950535067e-02,-1.955031137769780436e-01,9.543272797413576702e-02
7.542364515124828916e-02,-1.120284070203499266e-01,-1.515359342871275550e-01
9.374953261653969430e-03,-2.551426949890110429e-01,-8.308740309202952701e-02
-5.729210959096489586e-02,-1.435975479759227236e-01,1.376864254561794565e-01
-2.302093053180795101e-01,-1.412566923342730707e-01,1.227435314472064415e-01
6.700235514484120802e-02,1.876924312963598740e-01,1.450864418440605264e-01
8.006508950974315642e-02,2.025822382859425452e-01,1.643980564400817079e-01
-9.204961413149280458e-02,-8.156628901541421173e-02,1.250572933096416595e-01
-1.204648619102098236e-02,6.878088998009399165e-03,1.566477337380787205e-01
-2.164903511546320200e-02,6.421737616616243760e-02,-1.872000263732356840e-01
1.268218575731842046e-01,4.583323262138441767e-02,1.334245669663395584e-01
1.030896938576656430e-01,-1.151287925737843054e-01,8.154887196976635944e-02
6.647632653660862957e-03,4.352134862938175641e-02,-2.090875567825915132e-02
1.518649826545745707e-01,-1.447342400141356233e-02,1.030881373626869463e-01
-2.014878426928851940e-01,1.186368717256825051e-01,-4.932910213078874062e-02
1.480526483520158698e-01,1.518553421382341229e-01,-1.203890137050757890e-03
-3.430516836034024908e-01,7.464031238833482296e-02,-1.092094032476727122e-01
-2.119338079905199734e-01,-4.470864221413688167e-02,-1.363396637503087316e-01
3.839650590324726609e-02,2.514352922862960749e-01,-1.805197931500912220e-02
3.979550334487422236e-02,-1.718286755732411353e-01,1.203028456376867422e-01
-8.714241392204008507e-02,1.854172433570213108e-01,1.342641632735759316e-01
-2.496988641225022232e-01,6.009785051869155625e-02,-3.150644686016923490e-02
-8.204441313858054641e-02,-2.810738990048172042e-02,-2.028177449293955270e-01
7.673157056985614732e-02,-4.603954131096487518e-02,1.255690734753467375e-01
-1.580275055362496128e-01,1.132005535046131696e-02,-1.091779956240435806e-01
8.164105449921750524e-02,1.972937843047372353e-01,-2.216532482380779434e-01
-1.380520085667557850e-01,-1.926840573341204871e-02,-7.722084123268192768e-02
-1.055721225935427748e-01,-1.372444483247591170e-02,1.863322948184820416e-01
-9.661729078515374214e-02,-4.380257278628821305e-02,3.352180035669820590e-01
-4.749319800990005336e-02,4.087239218390253254e-02,2.089961680555660686e-02
-2.063218657815229784e-01,2.616354651722731586e-02,2.747223943421615577e-01
-1.217622925536974293e-02,-1.585136373362751039e-01,1.326554241976183601e-01
-1.775335552246696258e-01,-1.352315314115987988e-01,-1.179363986362259170e-01
-2.021223698221530640e-01,1.180963889529492534e-03,1.611173338101850872e-01
-3.877945930290471223e-03,-1.211541953749061956e-01,2.283744846386783281e-02
-9.246732230286845711e-03,1.211331370583783040e-01,1.821215065758450269e-01
1.320126816065623487e-01,1.985718962478761063e-01,-7.998788289468293511e-02
-9.802167915628913486e-02,-2.270274137120904256e-01,1.065052426462427815e-01
1.742461253731718285e-02,1.199934846169450342e-01,1.315609276740325462e-01
-1.191695141335783470e-01,-5.862630977560828044e-02,4.835311197371786572e-03
4.403083922286188390e-02,-1.939455412471931608e-02,-3.980318006586527901e-02
-7.803229278850358497e-02,-1.029474897224219726e-01,9.173219694173782857e-02
2.591810631914967522e-01,1.070300607734756548e-01,-4.873970911780538956e-02
1.162129733150721878e-01,2.030995842942996121e-01,1.242612051968272902e-01
8.004308548806141066e-02,-1.425711917974356591e-01,2.675235612689700129e-02
-8.441477283580650637e-02,2.860285306856154633e-02,-4.286503531135756745e-02
-1.404647911145086303e-01,1.117062764471067060e-01,9.631646651047551244e-02
-1.220161758300084692e-01,1.340120777151135034e-01,-6.758232153334123304e-02
-1.338192702382468569e-01,-4.139841703553721192e-02,-6.527580844644760572e-02
-1.098240514314410693e-01,-9.629490868538986836e-02,-9.446456523482564538e-02
1.846536115280101031e-01,-1.628090369794565340e-01,1.874244149052375907e-01
1.014827629292260752e-01,-2.399831384547791990e-01,1.244410332002390956e-01
-1.384636250304942806e-01,-6.725280821643631057e-02,-2.534435954797280548e-03
1.229064916959850123e-01,-1.556471486689307848e-01,-9.470619752086195664e-02
-1.423000102458141791e-01,1.012002517767802839e-01,-2.068695671672537149e-05
6.780040195219209920e-02,-1.488853602450763702e-01,2.147607425249575819e-02
1.921036499254076546e-01,1.368899714192694239e-01,9.604759164987174136e-02
1.335402602862117705e-01,-2.614007926090885191e-03,2.899949663724657803e-02
-1.966562194663610576e-03,1.194372195298903649e-01,-8.534371752250888288e-02
1.495320523600053055e-02,2.142011144890603180e-01,8.588569024588747769e-02
1.017616576853358767e-01,2.470970279733932917e-03,-6.675753387583835408e-02
-1.981515361183104340e-01,-9.291001831094083951e-02,-2.001444965357634109e-01
9.934421286596854805e-02,-3.552917360575107153e-02,7.240348001742859252e-02
2.762036127674489389e-02,1.241844940978488326e-01,-3.209936489730275122e-02
-1.177009705677314194e-01,-1.084436308079333479e-02,3.678827240774806134e-02
1.880361695748275844e-02,-1.130359291225297297e-01,1.050237419081255508e-01
2.430899008077568035e-02,1.918622907441620840e-02,2.054128608903184050e-01
-7.904810872034666314e-02,-1.815393213880761858e-01,4.808938893357995667e-03
-8.340076857368626528e-02,-1.356318361820875625e-02,-1.988341923880827533e-01
-1.701273771545830024e-02,1.161696502486883609e-01,2.128501553313935923e-01
1.117533524030531189e-01,-1.659847063287484825e-01,4.287863750336941976e-02
7.646566258412303141e-02,2.012191510283217466e-01,-1.838322753715250502e-01
-2.570813742070274799e-01,-1.027372748257765062e-01,-4.231078938854174881e-02
-2.129607131440519976e-04,-1.819163499171284060e-01,6.607708541959689263e-02
3.225981575256044176e-02,-5.484855823811157771e-02,5.618783923935821017e-02
-1.127753399664356837e-01,-6.501319458258160433e-02,-1.275632064921778941e-01
2.463445099696047746e-01,3.983080681991126720e-02,2.343497995076870011e-01
3.574649226653616590e-02,-6.814524580510067375e-02,7.303280035213005617e-02
1.574009731035748705e-01,9.147785065604752824e-03,-7.002954293475555092e-02
-2.088619850746176732e-01,-9.902431099987470120e-02,1.428458130572577388e-02
-2.084753880885858168e-01,1.429402992556479679e-01,9.371577911677410333e-02
4.843469140489657654e-02,2.172946067129755410e-01,-9.388090596681501060e-03
1.498403541400309957e-01,-1.404712736078227997e-01,4.699540567990243001e-02
-5.639954412443264758e-02,1.744609782245173379e-01,4.671736886319405313e-02
-1.860366922595101391e-01,7.321912317931499048e-02,4.194647842586773229e-02
-6.118813975077640882e-02,-1.844270567316283818e-02,-7.608965730611608191e-02
-1.092585185808959553e-01,-1.573272626654816791e-02,-4.666099428449048403e-02
6.782466293734285175e-03,-1.747404155427848826e-01,-3.011609550333503305e-01
2.045091053408654991e-01,-1.859027258639604496e-01,-4.783377382221062207e-03
7.014130894026425478e-02,-1.948749896514978264e-01,-1.180308172256489957e-01
1.757234570847587551e-01,7.141277763265224676e-02,7.230735493959770943e-02
3.276248924743577207e-02,1.454893984320302681e-02,-9.597918744054366458e-02
-6.584344330764037301e-02,7.559486928590139487e-02,-1.219968579767541916e-01
-1.361080010686825659e-01,-1.471013520210579240e-01,8.053979640170658150e-02
-9.311348941688639413e-02,-7.003803839980381196e-02,-1.349293619342664396e-01
-5.997667738297376289e-03,-2.805759802115763146e-01,1.468149793243252177e-01
1.568512961669823319e-02,3.708296514484993311e-02,-4.316768182730042203e-02
1.358521266891568047e-01,-3.110972370127951941e-02,1.452709613542154943e-01
-1.055293829784631071e-01,1.516920607530820309e-01,-3.658720031277141321e-02
-7.822333990617696964e-02,-2.805805798617829749e-01,1.943862349428006897e-01
2.301455732030739318e-02,-1.860526900150156482e-01,-6.034186741156169834e-03
2.239553092151012337e-01,9.263224005535757033e-02,6.276039056074807221e-02
2.025721763570168255e-01,3.891110227625545204e-02,-2.054273160705510082e-01
-1.002966567132068387e-01,2.057410223162353669e-01,-2.861459407031316515e-02
1.348459100731651539e-01,-1.465880917749010082e-01,-3.798907456175617398e-02
5.535135023570025153e-02,2.879110154900779150e-01,-8.628479614870920855e-02
-1.658645027977001807e-01,1.039730134797352823e-01,1.418244274223439960e-01
1.628700860819437546e-02,-1.657637225643241174e-01,-1.693986468512904686e-01
2.519553223895419289e-02,1.321973550788286822e-01,-1.775005280704789745e-01
6.675386841697826534e-02,2.795683177533534458e-01,1.664502345200628841e-01
1.412351992246660068e-02,4.429444485315884444e-02,9.703451902028068649e-03
1.467233123975253128e-01,3.126862572849313515e-02,7.169017345962921950e-02
-7.082810966441471789e-02,-1.189200153079705141e-02,-1.941386624451770654e-02
9.312833455945114525e-02,7.059972395994160155e-02,-1.006792928728768993e-01
-1.367626932636111237e-01,-4.308085130032605903e-02,-6.542489367128945243e-02
-2.541001351090886318e-01,-4.329541509128891075e-02,5.845199931608795890e-02
5.661056548550353479e-02,-2.691944903490895991e-01,-1.310330552039348870e-03
-3.914627988726074315e-02,2.592948512487877263e-02,6.850875195415260556e-03
-7.710303212077550261e-02,-9.698223949497704333e-02,2.130385888493781590e-02
-2.353601277927035162e-02,-7.075804554001616231e-02,-1.069620540402547310e-02
2.022851251764951064e-02,1.032465949554319112e-01,5.244053556080755484e-03
1.109267160242985439e-02,3.310532184007146383e-02,-3.003921140437681991e-02
1.064673471819737732e-01,1.745104714742309049e-01,-1.062352100462417639e-02
-9.026994161522498492e-03,1.809982095504451827e-01,1.423556215165366623e-01
-2.021409451817370306e-01,1.852501550828826449e-01,-2.619892059923582539e-01
3.845507302420590745e-02,2.556093476976245213e-02,1.427882317235283915e-01
1.737220441303935492e-02,1.501857250931317167e-01,-9.851322634322264016e-02
-9.062274300937167570e-02,1.584908634941582795e-01,-5.605156071082072200e-02
3.507147660708692660e-02,-4.649021640546433659e-02,5.250073318022843716e-02
1.835725649482921329e-01,2.365089221801297895e-02,-2.659898474821146830e-01
8.553241507183693970e-02,-4.088599661542692554e-02,7.152561689147243773e-02
1.666939339000692577e-01,1.867713380981658733e-01,1.841624644133375288e-01
1.352930984345706023e-01,-1.274910057549560327e-01,2.697551331538265706e-02
3.942818688848126474e-02,1.100572434925466414e-01,1.057129094878353354e-01
8.864836185975308314e-02,-3.419206207516412022e-01,-5.421760929991577271e-02
2.764591233451721419e-02,-1.384262717011032484e-01,-1.728427960064492785e-01
1.900133773647321722e-01,3.133001682804790328e-02,-3.168682959612420524e-02
-1.572069725759674824e-02,-1.162873417059861608e-01,1.488519131183923261e-01
1.209161722953852325e-01,6.371532979488697679e-02,-1.353003972824669450e-02
1.925066275203770813e-02,-7.993248486693826926e-02,-2.285391136770505427e-01
2.412368517402173618e-01,-1.009607743946987907e-01,1.569793917225151547e-01
2.739835934546551791e-02,2.514212567848597354e-02,7.264198077316602609e-02
-7.966335176746372482e-02,-1.317697290731636439e-01,-7.075375190703173112e-02
1.277212642630941308e-01,7.148423711695481297e-02,-2.644067522278752483e-02
-4.080417938791414817e-02,1.036912401143486179e-01,-2.697041471421153871e-02
-9.942838137186245373e-02,-7.831846761464801576e-02,-3.622149381705486171e-01
-4.387363255199969864e-02,3.657126917783018460e-02,2.172161646734168949e-01
-2.124114171385484227e-03,-7.482895283104359918e-02,1.811835567181121487e-01
-5.777058692355792335e-03,-2.609063819129665562e-01,1.551305308868139166e-01
3.476045627523027121e-03,-3.234686195651714086e-02,4.129467500465331536e-02
-3.570612317174966244e-02,2.908393160399511471e-02,-4.570720972322773329e-02
8.799936256815606150e-02,-5.333551052783062213e-02,-1.492982959157288514e-01
-9.181103689183675587e-02,5.802447044718286873e-02,2.306019921113764970e-01
2.358706993376755157e-02,-3.090865486764717840e-01,-1.232244082246923000e-01
-8.620650065039373294e-04,4.377211703454219130e-03,1.104945423876620009e-01
-3.428896907110311199e-02,-3.372944416466948370e-02,-7.928164704323076295e-02
7.895429264930628466e-02,-1.197109010142681160e-02,1.410538406539605660e-01
-3.751316383278150562e-02,-3.188828745085055955e-02,1.385045489222504478e-01
1.529603866735414208e-01,-6.462042565472639506e-03,-9.672936052688896336e-02
-2.567209647698404096e-01,-9.375561458401790449e-02,-3.441902519091205592e-02
8.196400022566904461e-03,-2.782331472056892227e-02,1.031971071665586659e-01
2.146294883468246595e-01,1.584462606924365302e-02,2.727052417538778847e-02
-9.438735991917876489e-02,-8.159421572717119597e-02,-2.480783375818343683e-01
-1.718486528156829007e-01,-9.596795237260291600e-02,-4.304480713341424410e-03
3.266903078990961856e-02,5.210880517301273024e-02,3.810859177419764765e-02
7.874752576895900635e-02,6.498237208572994750e-02,-1.493478907449716231e-01
2.524117237388777066e-02,2.428768182827006072e-01,5.403086748322558086e-02
-3.364121291134333086e-02,-2.379275864134512697e-01,2.279830314770689079e-02
-4.830000911721411827e-02,1.045002230359702161e-01,1.224937562862745410e-01
7.974614185998209204e-02,-5.315385755855329963e-02,1.810175760690663493e-01
7.201497421538097243e-02,9.252167816309784035e-03,8.930160310950679969e-02
-1.134686004021456945e-01,1.662226711530543077e-01,-2.019104066269025444e-01
2.891910964112121563e-01,2.030844284454937365e-01,-4.427800305803836212e-02
-5.486027454488929395e-02,6.479925171616766899e-02,-1.372621720770845766e-01
-7.930428489670189596e-02,-1.579028232898439521e-01,-1.297358602031279395e-01
3.992760379111379848e-02,1.221230678039436635e-01,2.008775418698221793e-01
2.469992510306410483e-01,-7.418626472974039487e-02,-1.120692994315635460e-01
-2.363680025288537045e-01,-1.591219646327566174e-03,-1.131248380473429543e-01
8.404181929742553236e-02,3.411504336169754459e-02,-4.524410173925545731e-02
-1.705667627342772330e-01,1.241684189099961227e-01,9.624644323780105759e-02
-2.306122284062057937e-02,-1.856449180993109405e-01,8.320063524984530612e-02
-1.994309628388958588e-01,-1.529297993073745199e-01,-5.370600131240470254e-02
4.859485949516909042e-02,6.672948227833415402e-02,8.354951918485420403e-02
1.307800579938401403e-02,-8.922723164727763834e-02,-2.468410411982986108e-01
1.205091533941927556e-01,-3.486394168450872993e-02,-3.083439932427121666e-01
8.491311006221885505e-03,1.368837943190611695e-01,1.952158782490888422e-01
1.419474999988561137e-01,-5.921687936359745948e-03,-2.742123845099579404e-01
2.293475966331501859e-01,1.554548856278857583e-01,7.591957592849335468e-02
7.004834169734522331e-02,-5.246214174181173737e-03,-2.017610349884887688e-01
1.061223592327271703e-01,4.094382642414850192e-03,9.608288862537171793e-02
1.170604924780271339e-01,1.528819368178291338e-01,-7.336773270365119781e-02
2.279847067924258286e-01,-1.075978600312566119e-01,-1.451478009264739466e-01
7.529304219983462554e-02,-9.157329692787458120e-02,8.732684635282216001e-02
1.077968935043231297e-01,-5.459850550660887147e-02,5.040778710166118198e-02
4.925556370009692708e-02,-2.117533111138468760e-01,2.129081123977778767e-01
-3.148711390292562862e-01,2.619018285862826506e-02,1.245466126304883847e-01
9.378440898448074658e-02,3.142117056399449607e-03,-7.649320618066438038e-02
-1.873678806911361350e-01,2.605323572761121184e-02,-9.065384946455595783e-02
-7.111183660097880610e-02,8.522078796093334255e-03,1.472941207823329213e-01
-5.417507923406620490e-02,2.220944505464066687e-01,-2.215811314125481490e-01
1.811640391073431056e-02,1.290829558383311260e-01,6.877255708918136867e-02
-2.703476071597439856e-01,1.915481726082234326e-01,1.091056497646313850e-01
5.912767230882664399e-02,7.172407374135514324e-02,3.203626207439443790e-02
2.580824676147334528e-03,2.925878835713650594e-01,-1.366831403199985917e-01
1.113737283394915512e-01,-9.341835857503274707e-03,-2.779039153608906659e-02
1.685034794013797743e-01,5.033650312032687119e-02,-1.254876091180382597e-02
4.824990255449695953e-02,-1.190911670555864083e-01,-8.102734660754305762e-02
-6.185322730184272116e-02,-2.108938927519999479e-02,-1.623472532058713169e-02
-1.855412306984417781e-02,1.015392055725667236e-01,-9.180552696121382916e-02
-3.049346792441584662e-03,2.147360692193091558e-01,2.874059190709786771e-01
2.269401166871448314e-02,9.880122397223169151e-02,-2.781732804157852623e-01
-9.917459014082027902e-02,1.168523516577009425e-01,-3.231666343931006297e-03
-2.643391811396459887e-02,2.775442960430165584e-01,4.355131578543038062e-02
2.773283629316132815e-01,1.016904823206114250e-01,-2.866982284486545018e-01
-2.642581034101254209e-02,3.056498107928046215e-01,1.603424210074022582e-01
-1.387905359588060272e-01,6.487320948772071771e-01,-3.310547115225168091e-02
-1.465157953184631490e-01,8.566143389940571451e-01,1.070024178204576348e-01
-1.011414933537866240e-01,1.229720283712555817e+00,1.150776687429567735e-01
1.430066233139796472e-01,1.353509435643901915e+00,8.441355761607247099e-02
-1.606446174287931572e-01,1.674310088697604337e+00,-1.445058424935024011e-01
-6.452397938709211744e-02,2.092321595039836168e+00,-8.692440201460346905e-02
-3.282249900243562335e-01,2.293498841546168787e+00,-7.525353095095972666e-02
-1.573539414020719285e-01,2.495489515368752187e+00,1.203541458514217032e-02
-3.279980512455330649e-02,2.811439629404734575e+00,1.889548281728151667e-03
2.373903057455241643e-03,3.282544202347954077e+00,-6.985128010739005341e-03
1.836444068610066163e-02,3.186050386761712705e+00,3.185305520243128519e-02
2.590605556150988309e-01,3.902462509502134580e+00,1.639784280225232427e-01
1.547921200672707220e-01,3.901733334752119475e+00,9.544540874245797946e-02
1.206304885032906948e-01,4.552890075169372608e+00,-6.143810113323869802e-03
-3.671781765687124471e-02,4.441730393230749030e+00,3.968700344832323638e-03
7.496834366972673566e-03,4.798113168752745850e+00,-8.106882010521376802e-02
3.696988964422816965e-02,5.077259650592607976e+00,3.551575437870480023e-02
-1.075510407332212204e-01,5.618073613541176847e+00,4.287200302983235761e-02
2.258221848591490111e-01,5.846703265786644899e+00,-2.162776086539472953e-01
4.311862794485991218e-02,5.917959113167482244e+00,1.199033490055173429e-01
-1.345941551020929383e-01,6.200539326878297786e+00,4.507787993952884487e-02
-3.423630195074901794e-02,6.481088039484967034e+00,6.029423982927351044e-02
-1.937133207843371452e-01,6.822339756974887592e+00,-1.173351017980127538e-02
1.540188364441603085e-02,7.161236692512638058e+00,-2.052221038599556791e-02
-1.257008800929607095e-01,7.437684219650848583e+00,1.177469058657075462e-01
-1.705480964222251539e-01,7.674820247760769654e+00,-7.924356880399441305e-02
-4.064368767477672534e-02,8.186718228466002500e+00,5.437540461391351942e-02
1.194324474370317135e-01,8.238952373450993960e+00,-3.787613721731586391e-02
1.477379045436818215e-02,8.689307742755932651e+00,-3.835852829392268071e-02
7.435488667277925789e-02,8.874615007201265726e+00,-2.066276589087451265e-02
1.790449794661088875e-02,9.260384659237340443e+00,8.233029219171075774e-02
-9.436855094455083581e-02,9.383090909516909051e+00,-1.629594451290635460e-01
6.158835331670140661e-02,9.771938472563066469e+00,1.143412092900741514e-02
2.715356167638770593e-02,1.022276226987733416e+01,-7.046675905084645586e-02
2.616085387777696281e-01,1.030846839226432721e+01,-1.419708730314006295e-01
-2.129343989708563367e-01,1.050994209369752674e+01,-6.983866141494707303e-02
-2.073425523480017518e-01,1.086393395609366408e+01,5.467822600364879992e-02
-7.183046550284699627e-02,1.134028406205234063e+01,-6.994000520652704500e-02
-7.363932043762690116e-02,1.148737405110895793e+01,1.402302267341700159e-01
-3.257303287374992140e-02,1.184298574612638610e+01,-4.345552078923643757e-02
-5.893899740063858472e-02,1.211839214723599767e+01,3.633922467941107931e-02
-2.739087271269421628e-02,1.242787198120168846e+01,1.501517794216933599e-01
8.808095690439159131e-02,1.255283096572241952e+01,1.709293026895821743e-01
-3.311937193765883262e-04,1.292956428670828295e+01,1.340152301734152951e-01
-6.714463016044033838e-02,1.322129265664111486e+01,-1.552942456806821747e-01
1.151717212017570185e-01,1.376895672547557936e+01,1.416935973502803647e-01
-2.178436845697160132e-02,1.377453892740000541e+01,8.210313336214147828e-02
7.750316688993998115e-02,1.427359085776070202e+01,-1.215565163192512815e-01
-5.139419692532087858e-02,1.411714737893118254e+01,-1.892247269224539008e-01
-1.060674994839277824e-01,1.454988470882164897e+01,1.213585358278848614e-01
2.478487124050609558e-01,1.500978995958468332e+01,1.231468653136708474e-01
1.509299667105076792e-01,1.539485141815761438e+01,3.562586029706927854e-03
9.890280612269476690e-02,1.548814704505934969e+01,7.582602268364321829e-02
1.524102334099752543e-01,1.597988928157949751e+01,1.405139687987183930e-02
-9.251141557188925779e-02,1.598301508662018655e+01,5.559402955169749638e-02
-6.591727389955021055e-02,1.620091411211672749e+01,-6.986999576705851811e-02
1.237728766618340082e-01,1.678814685970067444e+01,3.429481637727166410e-02
-8.025315550964669600e-03,1.693806557444833061e+01,-8.449491357468488784e-02
-1.604185318804491334e-01,1.728980391278938455e+01,-8.937556138019867383e-03
-6.371535019970030189e-02,1.731176047924915906e+01,5.787866643199305466e-02
-4.695766230995477436e-02,1.773052651567823190e+01,-2.093654489162571075e-01
9.283915123742118858e-02,1.792984270423344384e+01,2.052348122376553008e-02
-2.795229984430653777e-02,1.826034908177438965e+01,-1.483380783708568018e-01
-1.474949370846092254e-02,1.819612156957140670e+01,-8.884180145003511830e-02
-2.092634039262645032e-02,1.816530270963949079e+01,5.116996168584762167e-02
-1.490557509499876960e-03,1.834475615273398930e+01,8.341576563767071073e-02
6.845192399839355145e-03,1.838757164357103946e+01,-1.360309855987869021e-01
-3.031832557165673337e-03,1.854622784993343743e+01,7.711449297833587735e-02
2.658269570203113802e-02,1.868089641541772394e+01,-1.469936293408060368e-01
-1.574885598075546067e-01,1.856509532870254375e+01,-9.024510731505043515e-02
-1.394367311994092196e-01,1.865875097544964589e+01,-6.298612448452958756e-02
3.050126843375672997e-02,1.873929367049783323e+01,-3.469122374806177939e-02
-1.028374435071138515e-01,1.868350036178688711e+01,-2.161411734975284826e-01
3.571035674883488165e-02,1.859829061792169114e+01,4.682898917693582852e-02
5.093879033345138224e-02,1.840849767683661753e+01,7.884636641496754750e-02
1.990320550000275468e-01,1.862648282280466461e+01,-6.514584020064214526e-03
-2.633064175022313547e-02,1.866073873132740246e+01,-2.632290438615019976e-02
1.317729054107720683e-02,1.841129703626971903e+01,3.029096692374834698e-01
1.094307526347274295e-01,1.848324835918199938e+01,9.812590217458867781e-02
2.807248952368721680e-03,1.839075826382878631e+01,3.170273050651183089e-02
4.601952522833380188e-02,1.856060235084501642e+01,-1.366336010615294139e-01
1.267931240684111449e-01,1.824990248038430707e+01,-3.007395507174870919e-01
-5.203132932066878436e-02,1.849499920847679491e+01,-7.415248640792913848e-02
-1.223134791643240155e-01,1.816995137136766303e+01,-2.336510930294352986e-02
-1.618695101695128702e-01,1.827006230378338003e+01,-6.339635753700412213e-02
-1.158683507519358696e-01,1.809490515999857507e+01,8.604888588063010213e-02
4.932896091136974165e-02,1.789879506867438508e+01,1.733626723014821402e-01
-3.635073769988387826e-01,1.795487352214078669e+01,-8.401548856289145495e-03
7.212837912149860919e-02,1.772009096953665974e+01,6.789457915004830368e-02
-1.034735448889873184e-02,1.790533269638582325e+01,-1.515851525281853782e-02
-2.198761619767989131e-02,1.763005032459248156e+01,-4.469886299868009588e-02
1.299765904521889837e-01,1.761779281459937607e+01,-3.298267021455039000e-02
-1.182793933767005978e-01,1.756720356341501343e+01,1.720336941380045115e-01
-1.162786790178627072e-01,1.763423783618013019e+01,1.602246265204094189e-01
7.782737807807445229e-02,1.736917022044917758e+01,1.286504251001515109e-01
-9.422872271679258449e-02,1.743482425740348418e+01,-2.375033258572848693e-01
1.321444051799617048e-01,1.722504277061877076e+01,-1.257797207396318395e-01
1.480005624085299794e-02,1.721239858647898657e+01,-3.100083829376919578e-02
6.478481179346863572e-02,1.708178600343775244e+01,-3.624120398502667789e-02
5.594242550560046129e-02,1.685405661981944192e+01,-1.459538808636761872e-02
2.219865191195124487e-01,1.703578239297674912e+01,1.057953544988683298e-01
1.740043458365089502e-01,1.652870003403668520e+01,-1.129077178431792672e-01
2.950616584529535888e-02,1.704424253646537579e+01,-1.414224502175909400e-02
1.855017917930813429e-02,1.667728452025525243e+01,1.507034280340167065e-01
1.177967909121259565e-01,1.667282824670467178e+01,-2.642640698928693244e-01
1.751970194847985163e-01,1.666580532652685420e+01,-7.179888155832737928e-02
1.567841785751304395e-01,1.663797762923918100e+01,-2.062945143307972906e-01
7.596049367453884538e-02,1.626753406781857691e+01,-2.029710119311427252e-01
2.266230037173654344e-01,1.625375369170453155e+01,6.139990342356476533e-02
-9.901464095649382957e-02,1.615151900713419764e+01,-5.755504525467651511e-02
2.939533367967547828e-01,1.618627586848061028e+01,-8.597902053907095776e-02
1.532693756643732641e-01,1.595018209243087703e+01,-8.975037749918504670e-02
-1.019764137774755997e-01,1.600989339465920835e+01,-1.954458312716035942e-02
-3.587322858659745817e-02,1.581690969483735643e+01,1.393946584380151010e-01
-6.954908454553335173e-03,1.566560191009737046e+01,-7.898578059600376566e-02
-9.920848989661271156e-02,1.568630569148642806e+01,6.320126716270070555e-02
-5.310632298666879969e-02,1.536243245562272364e+01,-6.558595454590837592e-02
1.106198602882609537e-02,1.562940917754669989e+01,-1.039408825626935290e-01
1.712372843720826876e-01,1.535666088319181277e+01,1.671070749000686251e-01
5.664264467413465676e-02,1.518054512387096899e+01,-1.599348459456858412e-02
-3.659981974127447107e-02,1.501508029336371131e+01,1.525500117963213970e-02
1.053295401360593731e-03,1.501890774360006020e+01,-2.249126823524603136e-01
-3.140037556215516945e-01,1.503801686646420421e+01,5.548104885989165597e-02
2.092386115723119389e-01,1.511694981750685152e+01,-2.692937825303784449e-02
-1.773032803119644063e-01,1.511260720457572404e+01,-1.138958011779522828e-01
2.788436785884462754e-02,1.496768824346807314e+01,6.826717807240446911e-02
-3.476520713909778126e-01,1.466944604618767656e+01,-5.954760154335587974e-02
-8.525358106198818731e-02,1.489361107197394851e+01,1.045890519662583673e-01
-8.432760149383886072e-02,1.453815027700427009e+01,4.187969277839823090e-02
-5.533004407076607539e-02,1.464452037960156439e+01,-7.028222458790817084e-02
-4.253191923680322249e-03,1.449836178996422831e+01,-1.062099690312027014e-02
1.122936908099134157e-01,1.428236582382550601e+01,2.284269270522492137e-02
-1.019772253459862721e-01,1.413963530495382592e+01,9.531929998411521610e-02
-1.843744308731368464e-01,1.411105183657702611e+01,-1.374248626073969748e-01
-6.304645255986875141e-02,1.417064605566977420e+01,-1.947580317360120827e-01
1.653712575350164138e-01,1.409059105420648628e+01,-8.847955097748463893e-02
1.284159563924677228e-01,1.397763130131087195e+01,-6.404247354734153574e-02
2.942027073360470313e-02,1.392414855438302723e+01,-1.393957077837241210e-01
1.342174498206888389e-01,1.401682525398139845e+01,-6.131062385659514363e-02
2.417884536274321483e-02,1.374854905601288202e+01,-1.916763661419932374e-01
2.422492020401832147e-01,1.391933942624830856e+01,-4.866712290031179750e-02
-4.152787886144986701e-02,1.353056370684954501e+01,-2.168366347145808670e-01
-2.038254951626821132e-01,1.355475269665126170e+01,6.859791000501311298e-03
-1.988351345910458201e-01,1.330454635623152804e+01,3.321808379030722486e-02
3.621216151978735864e-02,1.356453963418281639e+01,4.617875016322426501e-02
1.220579876915501988e-01,1.349328464235577130e+01,-1.180608432451194789e-01
3.757672607392936737e-02,1.348170937870076180e+01,3.126169937267936905e-01
-6.918455641257416355e-02,1.326262414809238521e+01,1.278985467956869904e-01
-5.532169729415326725e-02,1.320047550216270693e+01,-1.592568497443830888e-01
-1.653364949463230135e-02,1.321401616163291060e+01,-1.139854530331609883e-01
1.249227886876416310e-01,1.294104274938143462e+01,1.845384745789169778e-01
-1.428370943071704223e-02,1.317279853231108966e+01,1.314544025981007579e-02
9.329541310128250386e-02,1.290951615513410466e+01,1.681314955307186554e-01
7.318376395664334677e-02,1.276622728429973286e+01,6.439850513355287187e-02
1.020447580731147497e-01,1.282394792307132469e+01,-1.739439432825094778e-01
-2.641738379350736313e-02,1.257567657957926599e+01,-5.070909638777054695e-02
-1.500607896794987628e-01,1.262790168856267670e+01,-3.691123817961953352e-02
-1.389618739140219827e-01,1.265419142734227620e+01,-1.459877128269048904e-02
-5.977721500010711730e-02,1.231618229516443641e+01,-5.828748464813889724e-02
2.555575098543005907e-01,1.212646414619611868e+01,2.257182690466490727e-01
3.314649075492583086e-02,1.253278740603558461e+01,1.265799674143074927e-01
1.727464421469751266e-01,1.234287324839348443e+01,-6.041852307008371836e-02
-3.474925885964059991e-02,1.227905835407195667e+01,1.176362346498631556e-01
3.810717490041718586e-02,1.215276028673477882e+01,-7.074712404954518197e-02
-6.739895138870827251e-02,1.202543599761289705e+01,-3.500597143691475122e-02
1.321434332446402016e-01,1.187307715647883732e+01,-1.031613373064123457e-01
2.771850444120948012e-02,1.211178000510386354e+01,5.577832140816295359e-02
-1.535042604259154730e-01,1.195875821465260991e+01,-1.530951033370552272e-01
-1.320988833445265465e-01,1.192951855062100996e+01,4.423043693199057297e-02
-2.330416743776401317e-02,1.181950868312248204e+01,2.279208977722804036e-02
1.351527325047128802e-01,1.193226912310708521e+01,1.525801457653356563e-01
-7.710218005078117720e-02,1.167612600009355184e+01,-2.678889719467725250e-02
-6.071713438196743584e-02,1.181363883093641753e+01,-1.228240613605195847e-01
1.182327564147384463e-01,1.144415141925551360e+01,2.907270572379864748e-01
-1.754643289556844996e-02,1.142970581184463974e+01,-3.659338096833397030e-02
2.664941826958823201e-01,1.141835599740642948e+01,-1.676641081436886782e-01
-2.989958535123862782e-01,1.128088027676613869e+01,-1.917986567405070147e-02
-4.909362180866651965e-02,1.140654489625062418e+01,3.352884805050496825e-02
-1.491827964066289591e-01,1.123779392559239021e+01,-1.144236072800287052e-01
-2.098284703901338033e-01,1.120011111106206592e+01,-1.533657425230550431e-01
-1.608803851733051765e-02,1.115770556481828990e+01,-9.367019447220738260e-02
-5.898612100116742279e-02,1.122020970950118013e+01,4.094257803278428254e-02
-1.635326796558524698e-01,1.081688026592027008e+01,1.508847927663418131e-01
-1.492105533650456284e-01,1.105425726347742454e+01,-4.007044744730250269e-02
6.671782519133594158e-02,1.113132745601147100e+01,7.143777110242709172e-02
3.020269714204565914e-01,1.085976674666137498e+01,4.359166344720925845e-02
2.601202809907103911e-02,1.091303032969183917e+01,4.750366914701110999e-02
1.061734496134217505e-02,1.084322483776328383e+01,2.017872415238122774e-01
-8.921617495675269668e-03,1.078103538394451633e+01,-3.391419185480089304e-02
2.008619289733870605e-01,1.074915927916470615e+01,7.359545750287831145e-02
5.617982635593437440e-02,1.080327243299591622e+01,2.070088492413565684e-01
3.398016806874082363e-02,1.041722288378688610e+01,-6.201561148563576598e-02
-3.240325227544241932e-02,1.057267448390011921e+01,-1.216398919174066645e-01
-4.242550784345759662e-02,1.044229491788494357e+01,-1.707373220555403678e-02
1.643971218674505907e-01,1.024248870693798530e+01,5.671916272586579461e-02
1.850831003058219515e-01,1.054696497580310321e+01,-1.690096478052065532e-01
8.088472878600398708e-02,1.027671370910503690e+01,-1.024881727043536611e-01
1.542249141601116473e-02,1.024916114960395497e+01,6.699840440087311000e-02
9.640458447623680149e-02,1.023335732557265487e+01,-7.391729519321847686e-02
7.946834330595253792e-02,9.988458072775831198e+00,-1.445503002804094106e-01
5.835840199870236111e-02,9.934448135618016096e+00,-8.887907732883706946e-02
4.650984179682251390e-02,9.976912591941301756e+00,1.310985795177675162e-01
-1.831432304039248560e-01,9.851988125141909691e+00,-4.823736387796818265e-02
-1.673833311631632223e-02,9.971538734384306935e+00,1.537546646488501673e-02
-1.181585163339751998e-01,9.917420951812657037e+00,1.860609314395387723e-02
9.069810770497889474e-02,9.892132606645946069e+00,-2.089158844522995967e-02
2.212783929672485494e-01,9.744810836264417020e+00,4.521829055476856568e-02
1.393148725172323188e-01,9.726474709956422160e+00,3.315484994713144284e-02
1.045530184117988287e-01,9.665476870774199369e+00,8.758774823120478448e-02
-3.047367090790341002e-02,9.727896254223898254e+00,1.525099285203390109e-01
-8.870645627673424960e-02,9.603087267008131533e+00,-5.127251924675440414e-02
-5.076907809081138319e-03,9.454219726168302529e+00,2.871073443930645050e-02
3.405159312924981030e-02,9.517633274638606977e+00,-4.533623866634203803e-02
9.289503548310734660e-02,9.178392527471851636e+00,2.653286694719000569e-02
2.745236302672499074e-01,9.238798102986795158e+00,-5.806611365122453690e-03
-3.713730949777146323e-02,9.571319907967341223e+00,-1.152906751355054493e-01
-1.655817317791752896e-01,9.425082205706129201e+00,1.265044893608304466e-01
1.016966565310684772e-01,9.103696652588977756e+00,-9.445251858199829598e-02
-1.304444253362191664e-01,9.354189064219287530e+00,-4.540910402228555409e-02
-1.461421714896479207e-01,9.153968080756714087e+00,8.430728599367587860e-04
1.528253266479312200e-01,8.985063832298031627e+00,-8.208763774680759295e-02
-1.681369318693991532e-01,9.054330756988640871e+00,-5.532432091756428298e-03
-3.225910195063910052e-02,8.750171326220920420e+00,1.061512955853937887e-02
1.080305323806252382e-01,8.925512183753108175e+00,-1.848651886837809066e-01
1.243661801461483640e-01,8.809032595414073796e+00,1.092879591406369783e-01
-1.496109325773201104e-02,8.818469552993223104e+00,-4.449527369900245499e-02
-8.286414243295510407e-02,8.850846304334572423e+00,-1.203646357843190656e-01
-4.731171812181551861e-02,8.600065785323540268e+00,-6.994960786735479608e-02
-5.031527146112330789e-02,8.673673556219567260e+00,1.632421721314358809e-01
4.783457554592933370e-02,8.375187067450482914e+00,-6.699884778054532308e-02
-9.877678433105645250e-02,8.568529725734672198e+00,4.137645252807702415e-03
-1.436585622201831947e-01,8.308899398834554972e+00,-9.215979591711474794e-02
-9.063147247820731167e-02,8.409797154681356801e+00,-6.800059189641120827e-02
1.506225224904599036e-01,8.491822058748928370e+00,-1.399178273862081434e-01
-1.347349373427305375e-01,8.532233005221664612e+00,-4.169476156182175958e-02
5.319764044331814351e-02,8.492339169905669394e+00,5.175318097790568977e-02
-1.083014439017812858e-01,8.236864539514535011e+00,-1.657031111679477947e-02
5.766615001218491215e-02,8.196402416332455587e+00,3.677800966101858748e-02
-6.673903808642787927e-02,8.311749459471863943e+00,6.273708580132109081e-02
-3.830688615317043300e-01,8.039971140828773954e+00,-1.491744027068002687e-01
2.654132374162282426e-01,8.153963988516334638e+00,-1.601323295307266470e-01
-2.537143192494214355e-02,7.911983452360283664e+00,1.782914332522592821e-02
-6.241611530264281477e-02,8.026371239547712477e+00,-2.883810434433132369e-02
-1.796078962591722838e-01,7.816862621456783344e+00,9.319356978854795304e-02
1.928138522349617245e-01,7.849175170576141447e+00,-3.976888611624527364e-02
-3.546604841391658158e-02,7.664562786707660891e+00,-2.009858492709016842e-01
-2.248843670370223036e-01,7.908376327631869707e+00,-4.622333129619998759e-02
1.542789700470724723e-01,7.731276554532472645e+00,6.709314518489208068e-02
-3.872746430933494965e-02,7.559929593361674804e+00,-8.915933478287844244e-04
-1.001470716806876354e-01,7.606098467954728548e+00,2.112872396368090100e-01
-1.815025969173881260e-01,7.571686118429055590e+00,-1.778179980068943233e-02
-5.095901865895344218e-02,7.737204566558219199e+00,1.307584384752139561e-01
1.759389724708100289e-01,7.807729780976861100e+00,5.584397285657120846e-02
-1.192651006442200234e-01,7.618500195195696989e+00,-2.322932574790528837e-02
2.297107544836301529e-01,7.570399328836611375e+00,-8.315835522691564230e-02
2.824429569189613673e-02,7.549296623523253480e+00,3.287527933491182774e-01
-1.404120821115066309e-01,7.285259539129723905e+00,5.965227926501070338e-03
3.514722159845839328e-02,7.187371922389902856e+00,1.195748958246854385e-02
1.244403065414445703e-01,7.235548022503095034e+00,7.930587150926579620e-02
-5.427085390761189621e-02,7.312499342859272389e+00,5.000998059305467036e-02
3.747633333532867511e-02,7.273469376132017494e+00,1.576277823930580801e-01
7.550055829353746750e-02,7.182524609636100621e+00,-6.142831517638658312e-02
1.689810926231270216e-01,7.048073864505543185e+00,1.031196868878954814e-01
-4.120470829063717366e-02,7.260850584552194675e+00,1.070104946464441736e-01
1.976002036717600108e-01,7.320235213178722944e+00,1.907758484222618067e-01
-5.390388012000386225e-02,7.110123030083204121e+00,-1.520702932140265660e-03
8.743116608137564694e-02,7.082103447851226363e+00,-5.140507739862806846e-02
-1.984618223917711602e-02,7.226973804957166791e+00,2.163733911417220837e-02
3.841332737661073277e-02,7.034356435898073023e+00,-1.393549818459484113e-01
-2.523631206253047488e-01,7.080923224440841324e+00,-9.200818156653323143e-02
2.147074826332078402e-03,6.979993677014423525e+00,-3.824611671878261343e-02
-1.846567570623737151e-02,7.257306058877928123e+00,-3.324906940793875831e-02
-1.300854436492995259e-01,7.008940436648956940e+00,2.826554325347174074e-02
1.060172948108581426e-01,6.730888267602858299e+00,8.122130367283057761e-02
-1.005635029682203779e-01,6.787328633686094292e+00,-2.629914778094701033e-02
-2.552226201561358931e-01,6.835315894357408162e+00,4.753796971451630660e-02
1.556319533042362438e-02,6.471978712511566201e+00,6.307003328050786450e-02
-1.489369454734470501e-02,6.700726091161066655e+00,7.466348877977174725e-02
-1.560291732673403653e-01,6.531231217956414703e+00,-6.568193784026479798e-02
1.149643167232549112e-01,6.681506936928335527e+00,-4.812585744087699569e-02
-3.032221345345143329e-02,6.615635391599319348e+00,4.401399586843984107e-02
-4.143398759018046551e-02,6.529532992542486092e+00,-1.868868052341494945e-02
-2.706629461728154301e-02,6.574739278948221965e+00,-1.272706454019724709e-01
-4.690411294990828178e-02,6.555817046834125250e+00,2.812800979914824584e-01
-1.500959849768962184e-01,6.442025556996624935e+00,-3.379880205409456495e-02
6.620578891314351545e-03,6.665848251009766301e+00,3.711165324770428903e-02
-2.987512778045571527e-02,6.446938407927243375e+00,-1.822022259909555075e-01
1.828384696864370496e-01,6.208041783130633817e+00,-8.158709910317078762e-02
-2.208782093876495711e-01,6.325326513499096137e+00,-1.516995340589598895e-01
4.492277063088234018e-02,6.371501360959270777e+00,-1.513313787768851559e-01
-1.722480333970778307e-02,6.315068852777760533e+00,7.375954181470172066e-02
6.225256616087493713e-03,6.390193357835056709e+00,-3.293387209815844263e-02
-7.123738782698042782e-02,6.270712526358410699e+00,-2.687488658870261227e-01
-3.235954408994978077e-02,6.114743800477945079e+00,-1.109550949168360140e-01
-1.026097498707306405e-01,6.074902483964477184e+00,-1.073338958432541457e-01
-6.847451147432091767e-02,6.214755222419206859e+00,1.619549909861255910e-01
1.308010059677780224e-01,6.084697431666740819e+00,9.380868507221015729e-02
-1.523661968749296380e-01,6.213168189886944859e+00,3.713167393349003920e-02
1.903027901034232833e-02,5.954933122032130655e+00,-6.151103029305873132e-02
-1.665704041460777385e-01,5.982984736671493664e+00,2.217064312435684109e-02
1.169965375344063502e-01,5.719596444899991639e+00,-1.078220537500467063e-01
-2.804306874159694374e-01,5.597614998185330926e+00,-1.772306393376472944e-01
-5.158195094212158355e-02,5.998246235321561315e+00,-1.578247520411603377e-02
-5.820791464172080619e-03,5.715865528348276214e+00,-1.148669790252085932e-01
-6.222654349343124947e-02,5.710820717327959706e+00,9.019010876677065192e-02
-1.133108194806703023e-01,5.687789285121911398e+00,-3.157166613067834138e-02
-6.010442390247732608e-02,5.943189192384989106e+00,-1.318182927955715601e-02
8.575325219988379211e-02,5.801931843726868543e+00,1.032842242705274971e-01
-1.574505211898759305e-01,5.463046949548326481e+00,-7.010183987278892359e-02
-8.580084409161008174e-02,5.746654727973094623e+00,-1.144132622536162824e-01
-1.215958801371530978e-01,5.494803607413339286e+00,-2.437549076661445213e-01
-1.846333123537958754e-01,5.535943684376001706e+00,-2.955033489165806090e-02
7.673996168780761185e-02,5.620421747007136481e+00,-1.148549228849077702e-01
9.842926383735589591e-02,5.701286024499807148e+00,-3.152290914391018412e-02
-1.157488720504796544e-02,5.453684088427622534e+00,-2.415684855535533970e-01
-1.153040076389711677e-01,5.810875927672870311e+00,-2.882783434969311831e-02
-7.338446542890664226e-02,5.562976930248617613e+00,-2.501581060012337404e-02
-1.187330320650103466e-01,5.466517275838516099e+00,1.505535917485978925e-01
9.030312301241125161e-02,5.402449628204156973e+00,8.271031127897000845e-02
-2.606801598532627606e-01,5.320894390406361474e+00,2.952892712505126097e-02
-2.995165036306237857e-02,5.432532749712882136e+00,1.661298584340650808e-01
5.926797399605578803e-02,5.449166560409580029e+00,8.117854726983315949e-02
-1.053477650756697304e-01,5.258815903950243786e+00,1.713900697645106760e-02
5.128908448683655585e-02,5.414401819773214442e+00,-1.720858767106377973e-01
1.597499532675464295e-02,5.105496114782521744e+00,-9.340876286424278085e-02
1.229808928706743187e-01,5.162197923010592326e+00,7.771469453639074688e-03
1.492268354228817873e-01,4.974630171522808730e+00,-8.878224362712826279e-02
8.226915512083581017e-02,5.165922872144824929e+00,-2.207112494307450212e-01
2.367726902777798903e-01,5.222378350909682609e+00,-2.282764113787920657e-01
-1.387703851517945453e-01,5.093841360759118864e+00,-3.943660197039665360e-02
-1.510284719652445484e-01,5.047416899436019122e+00,-1.437343755163101311e-01
-4.253738912656152699e-02,5.003928210189211967e+00,-2.651255068774955870e-01
-3.507809425544998749e-01,4.725558679369298964e+00,8.669644004620080668e-02
-1.967291278074036198e-01,4.829717299870289970e+00,1.249735208976384682e-01
6.435933991488128336e-02,4.690620538317006982e+00,-6.026787055544773758e-02
-2.450207502925023928e-02,4.849988812818980755e+00,9.846466949084592413e-02
-1.634274454334021937e-02,4.860832954236061987e+00,1.253261431819033267e-01
7.309542467933362320e-02,4.814119925018480295e+00,1.073630846116374561e-03
9.124850338198457755e-02,4.752640217824338542e+00,-2.472384082206293410e-01
4.588040413561114000e-02,4.867867275955658712e+00,-2.909643393207025919e-01
1.397318853833053875e-01,4.884754938287947823e+00,2.741426697437637783e-02
8.237222658727676172e-02,4.703249034106901760e+00,-5.975703984082383902e-02
-3.802625540846064911e-02,4.770375109304890948e+00,6.026624585899228309e-02
-1.759172530224490105e-01,4.777728224575414018e+00,3.339051502581819042e-03
-9.098316054530640462e-02,4.735538468280220847e+00,-2.067205216033388693e-01
1.240042199038573628e-01,4.672598124509495854e+00,-6.411968920639116165e-02
-3.364988503014838123e-02,4.731976235476832215e+00,-9.379208676981845572e-02
-1.662025174640470448e-01,4.738889152732255639e+00,-6.992372592785163488e-02
-1.486343682525631538e-01,4.339395667463709749e+00,-1.104967771182916239e-02
-6.133333013294965663e-02,4.587006889043763636e+00,-6.798230263598022127e-02
-1.006936724600680233e-01,4.625189229325206597e+00,-3.151403030012565019e-03
-1.621329333700421704e-01,4.710864838045528025e+00,-2.077122217454406838e-01
6.962553926031032903e-02,4.491942376198359455e+00,-1.086468477402865451e-01
2.383906047854174055e-03,4.373632502339213524e+00,1.800949899806987831e-01
2.006752848656403743e-01,4.557992526095441477e+00,3.753899477149243852e-02
-1.051255739508901166e-01,4.624686202251334421e+00,2.233292226750958620e-01
1.126882866286658125e-01,4.250451238297386247e+00,1.823340261096318415e-01
7.429281135603306441e-02,4.786551997192916019e+00,-3.266746273820141794e-02
7.206279895777467637e-02,4.433663001547769156e+00,3.190168462597176013e-02
-1.123473235584889762e-01,4.399074227838804418e+00,-5.290294139261623313e-02
-2.840998761053169508e-01,4.400342285873880321e+00,-5.089523739629574044e-03
-2.574207859211176397e-02,4.357596335737745186e+00,-7.788592622192175297e-02
2.597848365279718796e-02,4.392770025524765920e+00,5.620453400815362405e-02
-2.069669168463731529e-02,4.238145893171091139e+00,-1.796416736545796422e-01
-3.247763402274005812e-02,4.434474526168245667e+00,4.580518488222139195e-02
3.436298300535193251e-01,4.234202142670205227e+00,-2.146119197365829456e-01
1.383523826101081822e-01,4.367469485916212868e+00,-3.767103136307196898e-02
-1.959040603553904303e-01,4.365143439834163530e+00,-2.993688585887553308e-03
-2.497672685010881785e-02,4.152883383188384236e+00,-2.177003190102615518e-02
-8.435906882098904991e-02,4.216156743104024329e+00,-7.617039311300594084e-02
-3.791409538492951370e-02,4.010125022511284776e+00,2.621768397499957878e-03
-1.589625999834401726e-01,4.133238651336022862e+00,1.035670657877109518e-01
2.561808997821180545e-01,4.133735328294430467e+00,1.050551944574697472e-01
-1.884538971524138407e-01,4.066471602682111275e+00,5.909865408928009073e-02
1.533987708104293246e-01,3.917296668731040654e+00,-1.653470105084622888e-01
4.033097679192004098e-02,3.701172447061713999e+00,-2.519162994241697096e-02
3.268965906835907126e-02,4.196089466433978288e+00,1.609157229761498942e-01
-1.625104682946254889e-02,4.088971012606910982e+00,-9.432116640524346174e-03
-1.061828539549757311e-01,3.830953082121279607e+00,-7.571470926989935790e-02
-1.087937536775666902e-01,4.191867635537130710e+00,7.649820263196313586e-02
1.212226037761515579e-01,3.517403367420314897e+00,-3.242233657548253267e-02
-7.449081126237097616e-02,3.782654894388596478e+00,-5.883200652617125159e-02
1.057735137732166708e-01,3.933125535878710277e+00,-1.546198521086701860e-01
2.136593242533412207e-01,3.794564401148502242e+00,2.054563803875660566e-01
1.000461884164617482e-01,3.860593113853298064e+00,-2.037108340531686435e-01
3.656216649474235414e-01,4.062862789170430311e+00,1.119277727368420822e-01
1.825686945581651566e-01,3.808961882672198040e+00,3.215018329973359096e-02
1.065055836368105496e-01,3.803396999062657269e+00,4.804769726001823643e-02
7.915120556862809131e-02,3.517432252462708409e+00,1.332572849303337026e-01
1.924272703709826726e-01,3.603310964824903539e+00,-4.533918870752355612e-02
6.053173884351902706e-02,3.669187220875361088e+00,2.231463519769227577e-01
-2.128793293646145668e-01,3.686011033402848636e+00,1.238252121018247887e-01
-2.088196748427891547e-01,3.524730441409052784e+00,1.282881288156289450e-03
-6.118692338807128067e-02,3.575354180624479294e+00,1.321210444607956447e-01
1.380935902701696007e-02,3.686453409730983566e+00,4.256217410300263543e-02
-2.106484140435070651e-01,3.458321326135868290e+00,1.355372834075936617e-01
1.866016785758995433e-01,3.776924575930238781e+00,1.907925748062754834e-01
-7.635603905521844148e-02,3.521654716145091069e+00,9.218943844242952212e-02
1.291193749025629223e-02,3.671730446783694646e+00,-1.812822386256171259e-01
3.345190298683892866e-02,3.532733317169829856e+00,1.496034383370282994e-01
6.046535235285131066e-02,3.283788854717471839e+00,-4.755737003881860270e-02
5.900057418091644856e-02,3.392940853319156957e+00,1.408147679835330124e-01
1.017857557506896965e-01,3.503903845959652763e+00,1.208643335736240693e-01
6.785210991928894431e-02,3.441898646863546851e+00,-1.526031169536427347e-02
-4.139117864456101636e-02,3.338340879888961776e+00,-9.316041418575332633e-02
-1.206119324535040102e-02,3.365035917627630990e+00,2.027875493096855941e-01
1.370340989075573002e-01,3.474760975874649827e+00,-1.089746084952514099e-01
-6.236725269696063306e-02,3.555911621679118007e+00,1.367018879847488599e-01
6.980118087310080432e-02,3.288371394825205130e+00,4.510416610156075395e-02
1.244178330341817185e-01,3.504731184047340520e+00,-2.181931562021201809e-01
2.157553301644214439e-01,3.338195256256608623e+00,-2.434744427487160745e-01
-1.059870884149518994e-01,3.163067237611388194e+00,-1.586380822738225060e-01
1.473258427122579352e-02,3.194228196640262141e+00,2.777289045113992549e-01
1.571763329402998607e-02,3.039794135358190985e+00,-1.482236445446915574e-01
-2.840294252391100532e-02,3.532832813234916269e+00,-8.820587824158307097e-03
-1.436551738800645461e-02,3.169227636911005508e+00,-1.564492272463790523e-01
4.055602810801595820e-02,3.189346118204012370e+00,1.133301521217543184e-01
3.142442122607004562e-02,3.207490804472667989e+00,1.822871755266351756e-01
-1.269384158372243443e-01,3.199782552331865926e+00,-4.068482981420313421e-02
-1.492717747162478348e-01,3.051146653218644200e+00,8.383974423752323102e-02
1.816028865385273250e-01,3.061033637278483877e+00,4.711530497950309690e-03
8.145199579286911684e-02,3.033519451854906457e+00,8.825183441411066365e-02
4.167245489137973158e-02,3.224023795009620663e+00,-4.087663752265148775e-01
-1.685548875313461203e-01,2.995816000459502249e+00,1.054959237660338806e-01
-1.379125111474428789e-02,3.123844614331334757e+00,9.593850505230454295e-02
6.506625478688374264e-02,3.029624456475216832e+00,-3.868724696137305907e-02
8.005273739612030204e-02,2.794457436437548292e+00,-5.301406654856126444e-02
1.924754500887298769e-01,2.964413323372833808e+00,2.916895032199328872e-02
-1.311398424158633780e-01,2.788094791469795553e+00,6.225167316968412828e-02
-3.272545270252064098e-02,3.174411308938414056e+00,-2.556553790022076875e-02
-3.246390429246821113e-02,2.930293077895631093e+00,4.658929938688187444e-02
-4.272356655734035197e-02,3.009305467640933429e+00,5.103722723752852344e-04
1.239698748621573809e-01,2.939138083741343888e+00,2.254228622041461183e-01
3.658119589725028487e-02,2.930222012274331878e+00,-1.002026652076075108e-01
-6.675752800059873981e-02,3.055544992442510210e+00,8.655853811470844150e-02
-7.274759330161167069e-03,2.957214504108102382e+00,1.068319548015020243e-01
-7.542310161209675456e-02,2.908336141857825297e+00,-1.633709277031236418e-01
1.596415823402716760e-01,2.777854448542140808e+00,-1.916512491442886462e-02
3.154897188584383609e-03,2.791567168972080903e+00,5.512833224584470782e-02
-1.709669859859933583e-01,2.849911749083478885e+00,4.642961356678744489e-02
2.700660057388883095e-02,3.039157249262035787e+00,3.620280289813238711e-02
2.563599534450989870e-01,2.924655955294793053e+00,-2.321058874882562031e-02
-1.871955926816177077e-02,2.800864014813275293e+00,1.220001975038126699e-02
-7.685923957841274412e-02,2.867417660890816844e+00,-1.793809548554743671e-02
-1.718385713147287108e-01,2.889824969395752507e+00,1.051333305764068499e-01
-1.223469983253617360e-02,2.623206773227024335e+00,6.738092294947271854e-02
3.621394977539653393e-02,2.924523472863078233e+00,-8.232975913749153440e-02
-2.888100837356555317e-01,2.790623495668950849e+00,3.229495797765413387e-03
2.045374995860675116e-01,2.832592943564647747e+00,-8.126136567074863926e-02
-8.209582522971539675e-02,2.807115194634293598e+00,-2.162169827936317179e-01
7.521706475672447489e-02,2.595439815174037435e+00,1.080441218021749999e-01
4.014110680411690085e-02,2.696912953643610056e+00,5.056735117906015903e-02
2.036859142736082220e-02,2.676377332055421387e+00,-1.568889556942676677e-01
-2.988914514556432339e-02,2.409225795538544102e+00,-8.184871189945963632e-02
-1.773565312150308659e-01,2.534642066964305052e+00,2.320052973416150341e-02
-1.258984960933395847e-01,2.559369596000891978e+00,1.256613647402121947e-01
-3.465328570065328868e-03,2.662371303264781996e+00,3.569681425566524624e-03
-1.059449088094455010e-01,2.708643985653298447e+00,-8.315833739210315434e-02
-1.053606187084221435e-01,2.515190801533153664e+00,1.105903913268783401e-01
-1.460048824814193930e-02,2.403009465995323168e+00,-1.092259675171025901e-01
1.763027702439803057e-01,2.562643865251220898e+00,8.178144071659416287e-03
1.571183449567252755e-01,2.501443411673274664e+00,6.146373915170473545e-02
7.119984448420571543e-02,2.549506759334736916e+00,2.057061306964746150e-01
-2.701101960704350713e-01,2.626468721446949317e+00,-1.506667948075983698e-01
-1.866058023988701464e-01,2.429300096701728418e+00,-6.740472850769085866e-02
4.001961246123574706e-02,2.383588228094990935e+00,-1.232601561127546902e-01
-1.890344155487858613e-01,2.561366765691567515e+00,-7.193156721823754096e-02
-2.914837455277570835e-02,2.670211484578783434e+00,2.012317713297612914e-02
9.339231940769435192e-02,2.439694983158203545e+00,-1.147224020882937762e-01
-1.327961467092172443e-01,2.444488899823233474e+00,1.111597094726492763e-01
1.688987621914014164e-02,2.398239251773389480e+00,-4.082853348404968247e-02
1.961500741683381011e-01,2.336335091295830058e+00,6.407366905231962062e-02
-9.503268302388888714e-03,2.340613089418188242e+00,-1.067064268981577219e-01
-7.532668179524164287e-02,2.304908399780083883e+00,-6.341503186871143283e-02
8.878864775461517422e-02,2.236549685070450710e+00,-2.808998953586016104e-02
1.054988348676924453e-01,2.193173866807176076e+00,-4.518593586971550446e-02
2.380967198920972555e-02,2.319532180449518588e+00,-5.767140771403661548e-02
3.478275555490758369e-02,2.212205452393012806e+00,1.538729820342462501e-02
1.131403324767656648e-01,2.280286522528063298e+00,-9.065324307003801152e-02
2.421569475471658031e-02,2.373410125807710713e+00,-1.197572744513747400e-01
-1.059035209414960349e-01,2.403148801927100564e+00,6.170481250751184282e-02
1.426028058472348335e-02,2.111912111130326064e+00,-1.445016151195103737e-01
2.531819476092072099e-02,2.008836280415811970e+00,-5.787915086862931158e-02
-2.048340629005405630e-02,2.206642369199940390e+00,2.301501597003127036e-02
-5.084099219917665585e-02,2.314801385369095854e+00,1.495461170862271982e-01
2.503345133443948822e-01,2.181868992120984618e+00,-1.195082931898745343e-01
8.122321840441307228e-02,2.323156464582351255e+00,1.070464881866019929e-01
-6.887473609975905582e-03,2.352392959282915808e+00,-7.790682723080899486e-02
-2.128544229024721332e-02,2.091947244192746691e+00,7.046764392482973705e-02
-1.071795467108550420e-01,2.318956265530256022e+00,-5.509021221249349454e-02
-2.603456832039238722e-02,2.123891813014506802e+00,-5.969900066244100689e-02
-2.240278315055041214e-01,2.199252677994362859e+00,1.045485481229016939e-01
-1.796165804286994627e-01,2.297195727312290714e+00,-3.372524682028370940e-02
1.071971187040006018e-01,2.018260000633206985e+00,1.747208309029090190e-01
-5.359810319341996865e-02,1.994523092918353280e+00,-1.486811865045703507e-01
1.711154656997561918e-01,2.148628021907558860e+00,4.269510358951478929e-02
2.710908200138278379e-01,2.272734873986960835e+00,-9.978735168912307441e-02
2.507573772588849240e-02,2.137170893050816645e+00,1.205347214712747250e-01
9.348843836526629994e-03,2.165372176221023626e+00,-1.275758277016521836e-01
4.516463022739047178e-02,2.130999922528875157e+00,2.104808420394480850e-01
1.269320496486457950e-01,2.067975831454491153e+00,3.068736015312537035e-02
-6.548153532436951085e-02,2.097805026504691028e+00,1.656148257656614720e-01
-3.276689253782099076e-01,1.913587290241840044e+00,-1.325478675895544337e-03
1.716582099089463201e-02,2.078520135963499271e+00,6.036327974109398364e-03
2.618626855421379296e-01,2.238066751224985662e+00,-2.387725295346597720e-01
-1.205154515856938779e-01,1.754604021412530024e+00,-2.556933414621701539e-01
5.461553183626668626e-03,1.830658482491208217e+00,1.826286587829379082e-01
1.577713053770599394e-01,2.071777307049488481e+00,-1.615330316233683783e-01
1.377356797088660247e-02,1.911687254436267747e+00,-4.419778226335396853e-02
-8.942905329809118509e-02,2.045729994603601387e+00,1.109200407337009898e-02
7.333980411433800584e-02,1.981172578539329265e+00,1.785339312057311056e-01
-4.624078856168543222e-02,1.928760449933619503e+00,1.040757984173971418e-01
1.258283843196527918e-01,1.824341340452125815e+00,-8.108019571048252772e-02
-3.680579279924871966e-02,2.123344621615579353e+00,2.346775645727406517e-02
1.421317844212917347e-01,1.885773452494640789e+00,1.084770961383973997e-01
-1.850001522496708822e-02,1.876988930674096112e+00,-4.363778594245840831e-02
2.176148549516495057e-01,1.991538293078440880e+00,1.400527307506607422e-01
-1.289715870567384737e-01,1.991522720644668620e+00,-2.080987422149317978e-01
-2.914564346881365897e-01,1.863418298816746255e+00,1.100427295801940097e-01
7.882951074685765058e-02,1.943993844024355155e+00,-5.705969619072801674e-02
-1.042817521644584522e-01,2.008620982073157979e+00,-6.230003164296603335e-02
3.018648854237672707e-01,2.084967599209150979e+00,-2.253916401745598430e-01
9.864710120080161238e-02,1.693330284227625659e+00,2.240529700443597005e-01
4.359081070301639577e-02,1.870425493998019384e+00,-7.551273077963761848e-02
2.069531261091869523e-01,1.985357667541010951e+00,1.258653439803445774e-02
1.470154005762835392e-01,1.848802166584903706e+00,-1.324282427033389616e-02
-1.677539729146390046e-01,1.793789526619127717e+00,-1.480420415834827509e-02
-2.069608653195732506e-01,1.616130413728497750e+00,-2.120008288662643403e-01
-2.623782463141223140e-02,1.610217693667433725e+00,2.685532086619522030e-01
-5.655729404906726515e-02,1.775348838854962530e+00,-3.502199860528251024e-02
-1.863324314003650395e-01,1.878829589044847870e+00,-8.007769913541887274e-02
-1.562973521594112070e-01,1.885725005671170074e+00,-1.309660344283464506e-01
-1.088392429645298476e-01,1.885326630479400967e+00,-1.129867262337699158e-01
7.033647192437471329e-02,1.841708346670729801e+00,-5.847507721982772577e-02
9.973083406055063826e-02,1.789891379036515850e+00,1.189803907872842292e-01
-1.567272324631767966e-01,1.749081155404681232e+00,-1.384406043123928842e-01
8.183429793088949078e-02,1.998031244902309211e+00,-2.524004781116109472e-02
-2.595190773198635670e-01,1.754091534090908677e+00,-9.348621905989809577e-02
2.332880852640372565e-02,1.776484583910084680e+00,7.430469320436247638e-02
1.015824368885790557e-01,1.885128424569033401e+00,1.628676700348771489e-01
-4.763442731240720429e-02,1.743659321564823950e+00,1.025084434654259802e-01
1.255809186484360684e-01,1.605799767283729640e+00,5.049302920686379176e-02
-5.782975894127886929e-02,1.723655601238364588e+00,3.314294613318834459e-01
-1.007196312757462631e-01,1.856825534345801110e+00,-7.760355047948165608e-02
-4.450189899009081990e-02,1.411251710015952954e+00,2.069096779855489950e-03
-1.722049283757675631e-01,1.859997208315465667e+00,7.722822281367088329e-03
5.469652834060476781e-02,1.704969782300619574e+00,1.163952097711827699e-01
2.869321758789935076e-02,1.550863480017933282e+00,6.585197112263103947e-02
8.831041529996402906e-02,1.498851039840330079e+00,7.772043515073058517e-02
-1.574373886588933680e-01,1.619136760379603635e+00,-1.981180565773198524e-02
-1.644578529366448952e-02,1.438148515418398166e+00,1.966435575736394936e-01
-1.313376869197835917e-01,1.488367372498019758e+00,-1.021999694584183188e-01
-8.429345276669934772e-02,1.580577662541260642e+00,2.111944337681586140e-02
1.300443856648190732e-01,1.516627576386449405e+00,2.134975925570493371e-01
-1.650326362565704419e-01,1.612269306904507093e+00,-1.260825144205850734e-01
-5.694869748525049902e-02,1.625124906073446063e+00,-3.123021706328097877e-02
2.086767924942040803e-02,1.515504914123054103e+00,-1.571593246991891402e-01
3.543868556578985002e-02,1.581002976430491813e+00,-6.957834363436564418e-02
1.547685381296996961e-02,1.549719470918332842e+00,-1.684938621412961426e-02
2.938508902869319331e-02,1.564047912270045915e+00,1.973041083666647599e-01
2.749467713036958874e-02,1.594927738331701317e+00,-2.402266574959839862e-01
-2.216442686436919107e-01,1.321421919883026153e+00,3.606606379339044599e-01
-6.277643001536151179e-02,1.468756139324294718e+00,-1.057326775877142633e-01
5.071860256114432003e-02,1.503091075425962098e+00,-9.296012114419617556e-02
9.977071886301239201e-02,1.425046898041571364e+00,1.259102714250684152e-01
-4.463043317228183871e-02,1.458649629208434328e+00,-8.720629107785606016e-02
1.249673296388772586e-01,1.467187352667000955e+00,3.346146477093129290e-01
-1.163584330112373694e-01,1.371088232366041382e+00,-4.110091336829608546e-04
3.367816443813515664e-02,1.481994977252563128e+00,-2.375975078772279980e-01
1.470937293021143052e-02,1.658188050374556965e+00,-1.794072812929249638e-01
